	trial_type	block_num	trialID	shape	colour	direction	istarget	start_loc	target_position	accuracy_or_button	unique_ID	block_num_mod	trial_type_mod	shape_mod	colour_mod	direction_mod	start_loc_mod	istarget_mod	accuracy_or_button_mod	condition_name
0	1	5	104	1	1	2	0	4	0	0	511120004	block5_	disappearance_	shape1_	black_	counterclockwise_	loc4_	notarget_	incorrect_or_nopress	block5_disappearance_shape1_black_counterclockwise_notarget_incorrect_or_nopressloc4_
1	1	5	113	1	2	1	0	1	0	1	511210101	block5_	disappearance_	shape1_	white_	clockwise_	loc1_	notarget_	correct_or_press	block5_disappearance_shape1_white_clockwise_notarget_correct_or_pressloc1_
2	1	5	104	1	1	2	1	4	15	1	511121104	block5_	disappearance_	shape1_	black_	counterclockwise_	loc4_	istarget_	correct_or_press	block5_disappearance_shape1_black_counterclockwise_istarget_correct_or_pressloc4_
3	1	5	130	2	2	1	0	2	0	1	512210102	block5_	disappearance_	shape2_	white_	clockwise_	loc2_	notarget_	correct_or_press	block5_disappearance_shape2_white_clockwise_notarget_correct_or_pressloc2_
4	1	5	112	1	2	2	0	4	0	1	511220104	block5_	disappearance_	shape1_	white_	counterclockwise_	loc4_	notarget_	correct_or_press	block5_disappearance_shape1_white_counterclockwise_notarget_correct_or_pressloc4_
5	1	5	105	1	1	1	0	1	0	1	511110101	block5_	disappearance_	shape1_	black_	clockwise_	loc1_	notarget_	correct_or_press	block5_disappearance_shape1_black_clockwise_notarget_correct_or_pressloc1_
6	1	5	119	2	1	2	0	3	0	1	512120103	block5_	disappearance_	shape2_	black_	counterclockwise_	loc3_	notarget_	correct_or_press	block5_disappearance_shape2_black_counterclockwise_notarget_correct_or_pressloc3_
7	1	5	109	1	2	2	0	1	0	1	511220101	block5_	disappearance_	shape1_	white_	counterclockwise_	loc1_	notarget_	correct_or_press	block5_disappearance_shape1_white_counterclockwise_notarget_correct_or_pressloc1_
8	1	5	129	2	2	1	0	1	0	1	512210101	block5_	disappearance_	shape2_	white_	clockwise_	loc1_	notarget_	correct_or_press	block5_disappearance_shape2_white_clockwise_notarget_correct_or_pressloc1_
9	1	5	126	2	2	2	1	2	19	1	512221102	block5_	disappearance_	shape2_	white_	counterclockwise_	loc2_	istarget_	correct_or_press	block5_disappearance_shape2_white_counterclockwise_istarget_correct_or_pressloc2_
10	1	5	111	1	2	2	0	3	0	1	511220103	block5_	disappearance_	shape1_	white_	counterclockwise_	loc3_	notarget_	correct_or_press	block5_disappearance_shape1_white_counterclockwise_notarget_correct_or_pressloc3_
11	1	5	129	2	2	1	0	1	0	1	512210101	block5_	disappearance_	shape2_	white_	clockwise_	loc1_	notarget_	correct_or_press	block5_disappearance_shape2_white_clockwise_notarget_correct_or_pressloc1_
12	1	5	101	1	1	2	0	1	0	1	511120101	block5_	disappearance_	shape1_	black_	counterclockwise_	loc1_	notarget_	correct_or_press	block5_disappearance_shape1_black_counterclockwise_notarget_correct_or_pressloc1_
13	1	5	115	1	2	1	0	3	0	1	511210103	block5_	disappearance_	shape1_	white_	clockwise_	loc3_	notarget_	correct_or_press	block5_disappearance_shape1_white_clockwise_notarget_correct_or_pressloc3_
14	1	5	118	2	1	2	0	2	0	1	512120102	block5_	disappearance_	shape2_	black_	counterclockwise_	loc2_	notarget_	correct_or_press	block5_disappearance_shape2_black_counterclockwise_notarget_correct_or_pressloc2_
15	1	5	101	1	1	2	0	1	0	1	511120101	block5_	disappearance_	shape1_	black_	counterclockwise_	loc1_	notarget_	correct_or_press	block5_disappearance_shape1_black_counterclockwise_notarget_correct_or_pressloc1_
16	1	5	117	2	1	2	0	1	0	1	512120101	block5_	disappearance_	shape2_	black_	counterclockwise_	loc1_	notarget_	correct_or_press	block5_disappearance_shape2_black_counterclockwise_notarget_correct_or_pressloc1_
17	1	5	114	1	2	1	0	2	0	1	511210102	block5_	disappearance_	shape1_	white_	clockwise_	loc2_	notarget_	correct_or_press	block5_disappearance_shape1_white_clockwise_notarget_correct_or_pressloc2_
18	1	5	126	2	2	2	0	2	0	1	512220102	block5_	disappearance_	shape2_	white_	counterclockwise_	loc2_	notarget_	correct_or_press	block5_disappearance_shape2_white_counterclockwise_notarget_correct_or_pressloc2_
19	1	5	116	1	2	1	0	4	0	1	511210104	block5_	disappearance_	shape1_	white_	clockwise_	loc4_	notarget_	correct_or_press	block5_disappearance_shape1_white_clockwise_notarget_correct_or_pressloc4_
20	1	5	113	1	2	1	0	1	0	1	511210101	block5_	disappearance_	shape1_	white_	clockwise_	loc1_	notarget_	correct_or_press	block5_disappearance_shape1_white_clockwise_notarget_correct_or_pressloc1_
21	1	5	120	2	1	2	0	4	0	1	512120104	block5_	disappearance_	shape2_	black_	counterclockwise_	loc4_	notarget_	correct_or_press	block5_disappearance_shape2_black_counterclockwise_notarget_correct_or_pressloc4_
22	1	5	127	2	2	2	0	3	0	1	512220103	block5_	disappearance_	shape2_	white_	counterclockwise_	loc3_	notarget_	correct_or_press	block5_disappearance_shape2_white_counterclockwise_notarget_correct_or_pressloc3_
23	1	5	130	2	2	1	1	2	15	1	512211102	block5_	disappearance_	shape2_	white_	clockwise_	loc2_	istarget_	correct_or_press	block5_disappearance_shape2_white_clockwise_istarget_correct_or_pressloc2_
24	1	5	112	1	2	2	1	4	17	1	511221104	block5_	disappearance_	shape1_	white_	counterclockwise_	loc4_	istarget_	correct_or_press	block5_disappearance_shape1_white_counterclockwise_istarget_correct_or_pressloc4_
25	1	5	123	2	1	1	0	3	0	1	512110103	block5_	disappearance_	shape2_	black_	clockwise_	loc3_	notarget_	correct_or_press	block5_disappearance_shape2_black_clockwise_notarget_correct_or_pressloc3_
26	1	5	108	1	1	1	0	4	0	1	511110104	block5_	disappearance_	shape1_	black_	clockwise_	loc4_	notarget_	correct_or_press	block5_disappearance_shape1_black_clockwise_notarget_correct_or_pressloc4_
27	1	5	104	1	1	2	0	4	0	1	511120104	block5_	disappearance_	shape1_	black_	counterclockwise_	loc4_	notarget_	correct_or_press	block5_disappearance_shape1_black_counterclockwise_notarget_correct_or_pressloc4_
28	1	5	102	1	1	2	0	2	0	1	511120102	block5_	disappearance_	shape1_	black_	counterclockwise_	loc2_	notarget_	correct_or_press	block5_disappearance_shape1_black_counterclockwise_notarget_correct_or_pressloc2_
29	1	5	123	2	1	1	1	3	14	1	512111103	block5_	disappearance_	shape2_	black_	clockwise_	loc3_	istarget_	correct_or_press	block5_disappearance_shape2_black_clockwise_istarget_correct_or_pressloc3_
30	1	5	129	2	2	1	0	1	0	1	512210101	block5_	disappearance_	shape2_	white_	clockwise_	loc1_	notarget_	correct_or_press	block5_disappearance_shape2_white_clockwise_notarget_correct_or_pressloc1_
31	1	5	132	2	2	1	0	4	0	1	512210104	block5_	disappearance_	shape2_	white_	clockwise_	loc4_	notarget_	correct_or_press	block5_disappearance_shape2_white_clockwise_notarget_correct_or_pressloc4_
32	1	5	121	2	1	1	0	1	0	1	512110101	block5_	disappearance_	shape2_	black_	clockwise_	loc1_	notarget_	correct_or_press	block5_disappearance_shape2_black_clockwise_notarget_correct_or_pressloc1_
33	1	5	128	2	2	2	1	4	19	1	512221104	block5_	disappearance_	shape2_	white_	counterclockwise_	loc4_	istarget_	correct_or_press	block5_disappearance_shape2_white_counterclockwise_istarget_correct_or_pressloc4_
34	1	5	116	1	2	1	0	4	0	1	511210104	block5_	disappearance_	shape1_	white_	clockwise_	loc4_	notarget_	correct_or_press	block5_disappearance_shape1_white_clockwise_notarget_correct_or_pressloc4_
35	1	5	118	2	1	2	0	2	0	1	512120102	block5_	disappearance_	shape2_	black_	counterclockwise_	loc2_	notarget_	correct_or_press	block5_disappearance_shape2_black_counterclockwise_notarget_correct_or_pressloc2_
36	1	5	123	2	1	1	0	3	0	1	512110103	block5_	disappearance_	shape2_	black_	clockwise_	loc3_	notarget_	correct_or_press	block5_disappearance_shape2_black_clockwise_notarget_correct_or_pressloc3_
37	1	5	102	1	1	2	0	2	0	1	511120102	block5_	disappearance_	shape1_	black_	counterclockwise_	loc2_	notarget_	correct_or_press	block5_disappearance_shape1_black_counterclockwise_notarget_correct_or_pressloc2_
38	1	5	131	2	2	1	0	3	0	1	512210103	block5_	disappearance_	shape2_	white_	clockwise_	loc3_	notarget_	correct_or_press	block5_disappearance_shape2_white_clockwise_notarget_correct_or_pressloc3_
39	1	5	110	1	2	2	0	2	0	1	511220102	block5_	disappearance_	shape1_	white_	counterclockwise_	loc2_	notarget_	correct_or_press	block5_disappearance_shape1_white_counterclockwise_notarget_correct_or_pressloc2_
40	1	5	109	1	2	2	1	1	13	1	511221101	block5_	disappearance_	shape1_	white_	counterclockwise_	loc1_	istarget_	correct_or_press	block5_disappearance_shape1_white_counterclockwise_istarget_correct_or_pressloc1_
41	1	5	122	2	1	1	0	2	0	1	512110102	block5_	disappearance_	shape2_	black_	clockwise_	loc2_	notarget_	correct_or_press	block5_disappearance_shape2_black_clockwise_notarget_correct_or_pressloc2_
42	1	5	125	2	2	2	1	1	10	1	512221101	block5_	disappearance_	shape2_	white_	counterclockwise_	loc1_	istarget_	correct_or_press	block5_disappearance_shape2_white_counterclockwise_istarget_correct_or_pressloc1_
43	1	5	114	1	2	1	0	2	0	1	511210102	block5_	disappearance_	shape1_	white_	clockwise_	loc2_	notarget_	correct_or_press	block5_disappearance_shape1_white_clockwise_notarget_correct_or_pressloc2_
44	1	5	115	1	2	1	0	3	0	1	511210103	block5_	disappearance_	shape1_	white_	clockwise_	loc3_	notarget_	correct_or_press	block5_disappearance_shape1_white_clockwise_notarget_correct_or_pressloc3_
45	1	5	105	1	1	1	0	1	0	1	511110101	block5_	disappearance_	shape1_	black_	clockwise_	loc1_	notarget_	correct_or_press	block5_disappearance_shape1_black_clockwise_notarget_correct_or_pressloc1_
46	1	5	109	1	2	2	0	1	0	1	511220101	block5_	disappearance_	shape1_	white_	counterclockwise_	loc1_	notarget_	correct_or_press	block5_disappearance_shape1_white_counterclockwise_notarget_correct_or_pressloc1_
47	1	5	105	1	1	1	0	1	0	1	511110101	block5_	disappearance_	shape1_	black_	clockwise_	loc1_	notarget_	correct_or_press	block5_disappearance_shape1_black_clockwise_notarget_correct_or_pressloc1_
48	1	5	116	1	2	1	0	4	0	1	511210104	block5_	disappearance_	shape1_	white_	clockwise_	loc4_	notarget_	correct_or_press	block5_disappearance_shape1_white_clockwise_notarget_correct_or_pressloc4_
49	1	5	113	1	2	1	0	1	0	1	511210101	block5_	disappearance_	shape1_	white_	clockwise_	loc1_	notarget_	correct_or_press	block5_disappearance_shape1_white_clockwise_notarget_correct_or_pressloc1_
50	1	5	125	2	2	2	0	1	0	1	512220101	block5_	disappearance_	shape2_	white_	counterclockwise_	loc1_	notarget_	correct_or_press	block5_disappearance_shape2_white_counterclockwise_notarget_correct_or_pressloc1_
51	1	5	131	2	2	1	0	3	0	1	512210103	block5_	disappearance_	shape2_	white_	clockwise_	loc3_	notarget_	correct_or_press	block5_disappearance_shape2_white_clockwise_notarget_correct_or_pressloc3_
52	1	5	102	1	1	2	0	2	0	1	511120102	block5_	disappearance_	shape1_	black_	counterclockwise_	loc2_	notarget_	correct_or_press	block5_disappearance_shape1_black_counterclockwise_notarget_correct_or_pressloc2_
53	1	5	131	2	2	1	1	3	11	1	512211103	block5_	disappearance_	shape2_	white_	clockwise_	loc3_	istarget_	correct_or_press	block5_disappearance_shape2_white_clockwise_istarget_correct_or_pressloc3_
54	1	5	121	2	1	1	0	1	0	1	512110101	block5_	disappearance_	shape2_	black_	clockwise_	loc1_	notarget_	correct_or_press	block5_disappearance_shape2_black_clockwise_notarget_correct_or_pressloc1_
55	1	5	132	2	2	1	0	4	0	1	512210104	block5_	disappearance_	shape2_	white_	clockwise_	loc4_	notarget_	correct_or_press	block5_disappearance_shape2_white_clockwise_notarget_correct_or_pressloc4_
56	1	5	126	2	2	2	0	2	0	1	512220102	block5_	disappearance_	shape2_	white_	counterclockwise_	loc2_	notarget_	correct_or_press	block5_disappearance_shape2_white_counterclockwise_notarget_correct_or_pressloc2_
57	1	5	117	2	1	2	0	1	0	1	512120101	block5_	disappearance_	shape2_	black_	counterclockwise_	loc1_	notarget_	correct_or_press	block5_disappearance_shape2_black_counterclockwise_notarget_correct_or_pressloc1_
58	1	5	111	1	2	2	0	3	0	1	511220103	block5_	disappearance_	shape1_	white_	counterclockwise_	loc3_	notarget_	correct_or_press	block5_disappearance_shape1_white_counterclockwise_notarget_correct_or_pressloc3_
59	1	5	125	2	2	2	0	1	0	1	512220101	block5_	disappearance_	shape2_	white_	counterclockwise_	loc1_	notarget_	correct_or_press	block5_disappearance_shape2_white_counterclockwise_notarget_correct_or_pressloc1_
60	1	5	107	1	1	1	0	3	0	1	511110103	block5_	disappearance_	shape1_	black_	clockwise_	loc3_	notarget_	correct_or_press	block5_disappearance_shape1_black_clockwise_notarget_correct_or_pressloc3_
61	1	5	119	2	1	2	0	3	0	1	512120103	block5_	disappearance_	shape2_	black_	counterclockwise_	loc3_	notarget_	correct_or_press	block5_disappearance_shape2_black_counterclockwise_notarget_correct_or_pressloc3_
62	1	5	106	1	1	1	0	2	0	1	511110102	block5_	disappearance_	shape1_	black_	clockwise_	loc2_	notarget_	correct_or_press	block5_disappearance_shape1_black_clockwise_notarget_correct_or_pressloc2_
63	1	5	127	2	2	2	0	3	0	1	512220103	block5_	disappearance_	shape2_	white_	counterclockwise_	loc3_	notarget_	correct_or_press	block5_disappearance_shape2_white_counterclockwise_notarget_correct_or_pressloc3_
64	1	5	103	1	1	2	0	3	0	1	511120103	block5_	disappearance_	shape1_	black_	counterclockwise_	loc3_	notarget_	correct_or_press	block5_disappearance_shape1_black_counterclockwise_notarget_correct_or_pressloc3_
65	1	5	130	2	2	1	1	2	10	1	512211102	block5_	disappearance_	shape2_	white_	clockwise_	loc2_	istarget_	correct_or_press	block5_disappearance_shape2_white_clockwise_istarget_correct_or_pressloc2_
66	1	5	108	1	1	1	0	4	0	1	511110104	block5_	disappearance_	shape1_	black_	clockwise_	loc4_	notarget_	correct_or_press	block5_disappearance_shape1_black_clockwise_notarget_correct_or_pressloc4_
67	1	5	115	1	2	1	0	3	0	1	511210103	block5_	disappearance_	shape1_	white_	clockwise_	loc3_	notarget_	correct_or_press	block5_disappearance_shape1_white_clockwise_notarget_correct_or_pressloc3_
68	1	5	108	1	1	1	0	4	0	1	511110104	block5_	disappearance_	shape1_	black_	clockwise_	loc4_	notarget_	correct_or_press	block5_disappearance_shape1_black_clockwise_notarget_correct_or_pressloc4_
69	1	5	103	1	1	2	0	3	0	1	511120103	block5_	disappearance_	shape1_	black_	counterclockwise_	loc3_	notarget_	correct_or_press	block5_disappearance_shape1_black_counterclockwise_notarget_correct_or_pressloc3_
70	1	5	120	2	1	2	0	4	0	1	512120104	block5_	disappearance_	shape2_	black_	counterclockwise_	loc4_	notarget_	correct_or_press	block5_disappearance_shape2_black_counterclockwise_notarget_correct_or_pressloc4_
71	1	5	119	2	1	2	1	3	11	1	512121103	block5_	disappearance_	shape2_	black_	counterclockwise_	loc3_	istarget_	correct_or_press	block5_disappearance_shape2_black_counterclockwise_istarget_correct_or_pressloc3_
72	1	5	122	2	1	1	0	2	0	1	512110102	block5_	disappearance_	shape2_	black_	clockwise_	loc2_	notarget_	correct_or_press	block5_disappearance_shape2_black_clockwise_notarget_correct_or_pressloc2_
73	1	5	107	1	1	1	0	3	0	1	511110103	block5_	disappearance_	shape1_	black_	clockwise_	loc3_	notarget_	correct_or_press	block5_disappearance_shape1_black_clockwise_notarget_correct_or_pressloc3_
74	1	5	124	2	1	1	0	4	0	1	512110104	block5_	disappearance_	shape2_	black_	clockwise_	loc4_	notarget_	correct_or_press	block5_disappearance_shape2_black_clockwise_notarget_correct_or_pressloc4_
75	1	5	103	1	1	2	1	3	14	1	511121103	block5_	disappearance_	shape1_	black_	counterclockwise_	loc3_	istarget_	correct_or_press	block5_disappearance_shape1_black_counterclockwise_istarget_correct_or_pressloc3_
76	1	5	106	1	1	1	0	2	0	1	511110102	block5_	disappearance_	shape1_	black_	clockwise_	loc2_	notarget_	correct_or_press	block5_disappearance_shape1_black_clockwise_notarget_correct_or_pressloc2_
77	1	5	123	2	1	1	0	3	0	1	512110103	block5_	disappearance_	shape2_	black_	clockwise_	loc3_	notarget_	correct_or_press	block5_disappearance_shape2_black_clockwise_notarget_correct_or_pressloc3_
78	1	5	107	1	1	1	0	3	0	1	511110103	block5_	disappearance_	shape1_	black_	clockwise_	loc3_	notarget_	correct_or_press	block5_disappearance_shape1_black_clockwise_notarget_correct_or_pressloc3_
79	1	5	110	1	2	2	0	2	0	1	511220102	block5_	disappearance_	shape1_	white_	counterclockwise_	loc2_	notarget_	correct_or_press	block5_disappearance_shape1_white_counterclockwise_notarget_correct_or_pressloc2_
80	1	5	124	2	1	1	0	4	0	1	512110104	block5_	disappearance_	shape2_	black_	clockwise_	loc4_	notarget_	correct_or_press	block5_disappearance_shape2_black_clockwise_notarget_correct_or_pressloc4_
81	1	5	104	1	1	2	0	4	0	1	511120104	block5_	disappearance_	shape1_	black_	counterclockwise_	loc4_	notarget_	correct_or_press	block5_disappearance_shape1_black_counterclockwise_notarget_correct_or_pressloc4_
82	1	5	117	2	1	2	0	1	0	1	512120101	block5_	disappearance_	shape2_	black_	counterclockwise_	loc1_	notarget_	correct_or_press	block5_disappearance_shape2_black_counterclockwise_notarget_correct_or_pressloc1_
83	1	5	130	2	2	1	0	2	0	1	512210102	block5_	disappearance_	shape2_	white_	clockwise_	loc2_	notarget_	correct_or_press	block5_disappearance_shape2_white_clockwise_notarget_correct_or_pressloc2_
84	1	5	125	2	2	2	0	1	0	1	512220101	block5_	disappearance_	shape2_	white_	counterclockwise_	loc1_	notarget_	correct_or_press	block5_disappearance_shape2_white_counterclockwise_notarget_correct_or_pressloc1_
85	1	5	101	1	1	2	0	1	0	1	511120101	block5_	disappearance_	shape1_	black_	counterclockwise_	loc1_	notarget_	correct_or_press	block5_disappearance_shape1_black_counterclockwise_notarget_correct_or_pressloc1_
86	1	5	131	2	2	1	1	3	14	1	512211103	block5_	disappearance_	shape2_	white_	clockwise_	loc3_	istarget_	correct_or_press	block5_disappearance_shape2_white_clockwise_istarget_correct_or_pressloc3_
87	1	5	112	1	2	2	0	4	0	1	511220104	block5_	disappearance_	shape1_	white_	counterclockwise_	loc4_	notarget_	correct_or_press	block5_disappearance_shape1_white_counterclockwise_notarget_correct_or_pressloc4_
88	1	5	128	2	2	2	0	4	0	1	512220104	block5_	disappearance_	shape2_	white_	counterclockwise_	loc4_	notarget_	correct_or_press	block5_disappearance_shape2_white_counterclockwise_notarget_correct_or_pressloc4_
89	1	5	118	2	1	2	0	2	0	1	512120102	block5_	disappearance_	shape2_	black_	counterclockwise_	loc2_	notarget_	correct_or_press	block5_disappearance_shape2_black_counterclockwise_notarget_correct_or_pressloc2_
90	1	5	118	2	1	2	1	2	18	1	512121102	block5_	disappearance_	shape2_	black_	counterclockwise_	loc2_	istarget_	correct_or_press	block5_disappearance_shape2_black_counterclockwise_istarget_correct_or_pressloc2_
91	1	5	119	2	1	2	0	3	0	1	512120103	block5_	disappearance_	shape2_	black_	counterclockwise_	loc3_	notarget_	correct_or_press	block5_disappearance_shape2_black_counterclockwise_notarget_correct_or_pressloc3_
92	1	5	106	1	1	1	1	2	14	1	511111102	block5_	disappearance_	shape1_	black_	clockwise_	loc2_	istarget_	correct_or_press	block5_disappearance_shape1_black_clockwise_istarget_correct_or_pressloc2_
93	1	5	122	2	1	1	1	2	17	1	512111102	block5_	disappearance_	shape2_	black_	clockwise_	loc2_	istarget_	correct_or_press	block5_disappearance_shape2_black_clockwise_istarget_correct_or_pressloc2_
94	1	5	130	2	2	1	0	2	0	1	512210102	block5_	disappearance_	shape2_	white_	clockwise_	loc2_	notarget_	correct_or_press	block5_disappearance_shape2_white_clockwise_notarget_correct_or_pressloc2_
95	1	5	120	2	1	2	0	4	0	1	512120104	block5_	disappearance_	shape2_	black_	counterclockwise_	loc4_	notarget_	correct_or_press	block5_disappearance_shape2_black_counterclockwise_notarget_correct_or_pressloc4_
96	1	5	103	1	1	2	0	3	0	1	511120103	block5_	disappearance_	shape1_	black_	counterclockwise_	loc3_	notarget_	correct_or_press	block5_disappearance_shape1_black_counterclockwise_notarget_correct_or_pressloc3_
97	1	5	112	1	2	2	0	4	0	1	511220104	block5_	disappearance_	shape1_	white_	counterclockwise_	loc4_	notarget_	correct_or_press	block5_disappearance_shape1_white_counterclockwise_notarget_correct_or_pressloc4_
98	1	5	106	1	1	1	0	2	0	1	511110102	block5_	disappearance_	shape1_	black_	clockwise_	loc2_	notarget_	correct_or_press	block5_disappearance_shape1_black_clockwise_notarget_correct_or_pressloc2_
99	1	5	131	2	2	1	1	3	11	1	512211103	block5_	disappearance_	shape2_	white_	clockwise_	loc3_	istarget_	correct_or_press	block5_disappearance_shape2_white_clockwise_istarget_correct_or_pressloc3_
100	1	5	122	2	1	1	0	2	0	1	512110102	block5_	disappearance_	shape2_	black_	clockwise_	loc2_	notarget_	correct_or_press	block5_disappearance_shape2_black_clockwise_notarget_correct_or_pressloc2_
101	1	5	132	2	2	1	0	4	0	1	512210104	block5_	disappearance_	shape2_	white_	clockwise_	loc4_	notarget_	correct_or_press	block5_disappearance_shape2_white_clockwise_notarget_correct_or_pressloc4_
102	1	5	128	2	2	2	0	4	0	1	512220104	block5_	disappearance_	shape2_	white_	counterclockwise_	loc4_	notarget_	correct_or_press	block5_disappearance_shape2_white_counterclockwise_notarget_correct_or_pressloc4_
103	1	5	128	2	2	2	0	4	0	1	512220104	block5_	disappearance_	shape2_	white_	counterclockwise_	loc4_	notarget_	correct_or_press	block5_disappearance_shape2_white_counterclockwise_notarget_correct_or_pressloc4_
104	1	5	127	2	2	2	0	3	0	1	512220103	block5_	disappearance_	shape2_	white_	counterclockwise_	loc3_	notarget_	correct_or_press	block5_disappearance_shape2_white_counterclockwise_notarget_correct_or_pressloc3_
105	1	5	111	1	2	2	0	3	0	1	511220103	block5_	disappearance_	shape1_	white_	counterclockwise_	loc3_	notarget_	correct_or_press	block5_disappearance_shape1_white_counterclockwise_notarget_correct_or_pressloc3_
106	1	5	124	2	1	1	0	4	0	1	512110104	block5_	disappearance_	shape2_	black_	clockwise_	loc4_	notarget_	correct_or_press	block5_disappearance_shape2_black_clockwise_notarget_correct_or_pressloc4_
107	1	5	110	1	2	2	0	2	0	1	511220102	block5_	disappearance_	shape1_	white_	counterclockwise_	loc2_	notarget_	correct_or_press	block5_disappearance_shape1_white_counterclockwise_notarget_correct_or_pressloc2_
108	1	5	126	2	2	2	0	2	0	1	512220102	block5_	disappearance_	shape2_	white_	counterclockwise_	loc2_	notarget_	correct_or_press	block5_disappearance_shape2_white_counterclockwise_notarget_correct_or_pressloc2_
109	1	5	114	1	2	1	0	2	0	1	511210102	block5_	disappearance_	shape1_	white_	clockwise_	loc2_	notarget_	correct_or_press	block5_disappearance_shape1_white_clockwise_notarget_correct_or_pressloc2_
110	1	5	121	2	1	1	0	1	0	1	512110101	block5_	disappearance_	shape2_	black_	clockwise_	loc1_	notarget_	correct_or_press	block5_disappearance_shape2_black_clockwise_notarget_correct_or_pressloc1_
111	1	5	109	1	2	2	0	1	0	1	511220101	block5_	disappearance_	shape1_	white_	counterclockwise_	loc1_	notarget_	correct_or_press	block5_disappearance_shape1_white_counterclockwise_notarget_correct_or_pressloc1_
112	1	5	117	2	1	2	1	1	19	0	512121001	block5_	disappearance_	shape2_	black_	counterclockwise_	loc1_	istarget_	incorrect_or_nopress	block5_disappearance_shape2_black_counterclockwise_istarget_incorrect_or_nopressloc1_
113	1	5	131	2	2	1	0	3	0	1	512210103	block5_	disappearance_	shape2_	white_	clockwise_	loc3_	notarget_	correct_or_press	block5_disappearance_shape2_white_clockwise_notarget_correct_or_pressloc3_
114	2	5	228	1	1	0	2	28	2	0	521102028	block5_	flicker_	shape1_	black_	counterclockwise_	loc28_	padding_	incorrect_or_nopress	block5_flicker_shape1_black_counterclockwise_padding_incorrect_or_nopressloc28_
115	2	5	228	2	2	0	0	28	0	0	522200028	block5_	flicker_	shape2_	white_	counterclockwise_	loc28_	notarget_	incorrect_or_nopress	block5_flicker_shape2_white_counterclockwise_notarget_incorrect_or_nopressloc28_
116	2	5	257	2	1	0	0	57	0	0	522100057	block5_	flicker_	shape2_	black_	counterclockwise_	loc57_	notarget_	incorrect_or_nopress	block5_flicker_shape2_black_counterclockwise_notarget_incorrect_or_nopressloc57_
117	2	5	232	2	2	0	0	32	0	0	522200032	block5_	flicker_	shape2_	white_	counterclockwise_	loc32_	notarget_	incorrect_or_nopress	block5_flicker_shape2_white_counterclockwise_notarget_incorrect_or_nopressloc32_
118	2	5	230	2	1	0	0	30	0	0	522100030	block5_	flicker_	shape2_	black_	counterclockwise_	loc30_	notarget_	incorrect_or_nopress	block5_flicker_shape2_black_counterclockwise_notarget_incorrect_or_nopressloc30_
119	2	5	241	1	2	0	0	41	0	0	521200041	block5_	flicker_	shape1_	white_	counterclockwise_	loc41_	notarget_	incorrect_or_nopress	block5_flicker_shape1_white_counterclockwise_notarget_incorrect_or_nopressloc41_
120	2	5	214	2	2	0	0	14	0	0	522200014	block5_	flicker_	shape2_	white_	counterclockwise_	loc14_	notarget_	incorrect_or_nopress	block5_flicker_shape2_white_counterclockwise_notarget_incorrect_or_nopressloc14_
121	2	5	217	1	2	0	0	17	0	0	521200017	block5_	flicker_	shape1_	white_	counterclockwise_	loc17_	notarget_	incorrect_or_nopress	block5_flicker_shape1_white_counterclockwise_notarget_incorrect_or_nopressloc17_
122	2	5	215	1	1	0	0	15	0	0	521100015	block5_	flicker_	shape1_	black_	counterclockwise_	loc15_	notarget_	incorrect_or_nopress	block5_flicker_shape1_black_counterclockwise_notarget_incorrect_or_nopressloc15_
123	2	5	234	2	2	0	0	34	0	0	522200034	block5_	flicker_	shape2_	white_	counterclockwise_	loc34_	notarget_	incorrect_or_nopress	block5_flicker_shape2_white_counterclockwise_notarget_incorrect_or_nopressloc34_
124	2	5	201	1	2	0	0	1	0	0	521200001	block5_	flicker_	shape1_	white_	counterclockwise_	loc1_	notarget_	incorrect_or_nopress	block5_flicker_shape1_white_counterclockwise_notarget_incorrect_or_nopressloc1_
125	2	5	227	1	1	0	0	27	0	0	521100027	block5_	flicker_	shape1_	black_	counterclockwise_	loc27_	notarget_	incorrect_or_nopress	block5_flicker_shape1_black_counterclockwise_notarget_incorrect_or_nopressloc27_
126	2	5	236	1	1	0	0	36	0	0	521100036	block5_	flicker_	shape1_	black_	counterclockwise_	loc36_	notarget_	incorrect_or_nopress	block5_flicker_shape1_black_counterclockwise_notarget_incorrect_or_nopressloc36_
127	2	5	227	2	1	0	0	27	0	0	522100027	block5_	flicker_	shape2_	black_	counterclockwise_	loc27_	notarget_	incorrect_or_nopress	block5_flicker_shape2_black_counterclockwise_notarget_incorrect_or_nopressloc27_
128	2	5	254	2	2	0	0	54	0	0	522200054	block5_	flicker_	shape2_	white_	counterclockwise_	loc54_	notarget_	incorrect_or_nopress	block5_flicker_shape2_white_counterclockwise_notarget_incorrect_or_nopressloc54_
129	2	5	244	2	1	0	0	44	0	0	522100044	block5_	flicker_	shape2_	black_	counterclockwise_	loc44_	notarget_	incorrect_or_nopress	block5_flicker_shape2_black_counterclockwise_notarget_incorrect_or_nopressloc44_
130	2	5	254	1	2	0	0	54	0	0	521200054	block5_	flicker_	shape1_	white_	counterclockwise_	loc54_	notarget_	incorrect_or_nopress	block5_flicker_shape1_white_counterclockwise_notarget_incorrect_or_nopressloc54_
131	2	5	248	1	1	0	0	48	0	0	521100048	block5_	flicker_	shape1_	black_	counterclockwise_	loc48_	notarget_	incorrect_or_nopress	block5_flicker_shape1_black_counterclockwise_notarget_incorrect_or_nopressloc48_
132	2	5	228	2	1	0	0	28	0	0	522100028	block5_	flicker_	shape2_	black_	counterclockwise_	loc28_	notarget_	incorrect_or_nopress	block5_flicker_shape2_black_counterclockwise_notarget_incorrect_or_nopressloc28_
133	2	5	248	2	2	0	0	48	0	0	522200048	block5_	flicker_	shape2_	white_	counterclockwise_	loc48_	notarget_	incorrect_or_nopress	block5_flicker_shape2_white_counterclockwise_notarget_incorrect_or_nopressloc48_
134	2	5	207	2	2	0	0	7	0	0	522200007	block5_	flicker_	shape2_	white_	counterclockwise_	loc7_	notarget_	incorrect_or_nopress	block5_flicker_shape2_white_counterclockwise_notarget_incorrect_or_nopressloc7_
135	2	5	242	2	1	0	0	42	0	0	522100042	block5_	flicker_	shape2_	black_	counterclockwise_	loc42_	notarget_	incorrect_or_nopress	block5_flicker_shape2_black_counterclockwise_notarget_incorrect_or_nopressloc42_
136	2	5	204	1	2	0	0	4	0	0	521200004	block5_	flicker_	shape1_	white_	counterclockwise_	loc4_	notarget_	incorrect_or_nopress	block5_flicker_shape1_white_counterclockwise_notarget_incorrect_or_nopressloc4_
137	2	5	264	2	1	0	0	64	0	0	522100064	block5_	flicker_	shape2_	black_	counterclockwise_	loc64_	notarget_	incorrect_or_nopress	block5_flicker_shape2_black_counterclockwise_notarget_incorrect_or_nopressloc64_
138	2	5	201	2	1	0	0	1	0	0	522100001	block5_	flicker_	shape2_	black_	counterclockwise_	loc1_	notarget_	incorrect_or_nopress	block5_flicker_shape2_black_counterclockwise_notarget_incorrect_or_nopressloc1_
139	2	5	230	1	2	0	0	30	0	0	521200030	block5_	flicker_	shape1_	white_	counterclockwise_	loc30_	notarget_	incorrect_or_nopress	block5_flicker_shape1_white_counterclockwise_notarget_incorrect_or_nopressloc30_
140	2	5	251	1	2	0	0	51	0	0	521200051	block5_	flicker_	shape1_	white_	counterclockwise_	loc51_	notarget_	incorrect_or_nopress	block5_flicker_shape1_white_counterclockwise_notarget_incorrect_or_nopressloc51_
141	2	5	217	2	1	0	0	17	0	0	522100017	block5_	flicker_	shape2_	black_	counterclockwise_	loc17_	notarget_	incorrect_or_nopress	block5_flicker_shape2_black_counterclockwise_notarget_incorrect_or_nopressloc17_
142	2	5	252	2	2	0	0	52	0	0	522200052	block5_	flicker_	shape2_	white_	counterclockwise_	loc52_	notarget_	incorrect_or_nopress	block5_flicker_shape2_white_counterclockwise_notarget_incorrect_or_nopressloc52_
143	2	5	233	2	2	0	0	33	0	0	522200033	block5_	flicker_	shape2_	white_	counterclockwise_	loc33_	notarget_	incorrect_or_nopress	block5_flicker_shape2_white_counterclockwise_notarget_incorrect_or_nopressloc33_
144	2	5	238	1	2	0	0	38	0	0	521200038	block5_	flicker_	shape1_	white_	counterclockwise_	loc38_	notarget_	incorrect_or_nopress	block5_flicker_shape1_white_counterclockwise_notarget_incorrect_or_nopressloc38_
145	2	5	264	1	2	0	0	64	0	0	521200064	block5_	flicker_	shape1_	white_	counterclockwise_	loc64_	notarget_	incorrect_or_nopress	block5_flicker_shape1_white_counterclockwise_notarget_incorrect_or_nopressloc64_
146	2	5	264	2	2	0	0	64	0	0	522200064	block5_	flicker_	shape2_	white_	counterclockwise_	loc64_	notarget_	incorrect_or_nopress	block5_flicker_shape2_white_counterclockwise_notarget_incorrect_or_nopressloc64_
147	2	5	222	1	1	0	0	22	0	0	521100022	block5_	flicker_	shape1_	black_	counterclockwise_	loc22_	notarget_	incorrect_or_nopress	block5_flicker_shape1_black_counterclockwise_notarget_incorrect_or_nopressloc22_
148	2	5	251	1	1	0	0	51	0	0	521100051	block5_	flicker_	shape1_	black_	counterclockwise_	loc51_	notarget_	incorrect_or_nopress	block5_flicker_shape1_black_counterclockwise_notarget_incorrect_or_nopressloc51_
149	2	5	204	1	1	0	0	4	0	0	521100004	block5_	flicker_	shape1_	black_	counterclockwise_	loc4_	notarget_	incorrect_or_nopress	block5_flicker_shape1_black_counterclockwise_notarget_incorrect_or_nopressloc4_
150	2	5	250	1	2	0	0	50	0	0	521200050	block5_	flicker_	shape1_	white_	counterclockwise_	loc50_	notarget_	incorrect_or_nopress	block5_flicker_shape1_white_counterclockwise_notarget_incorrect_or_nopressloc50_
151	2	5	240	2	2	0	0	40	0	0	522200040	block5_	flicker_	shape2_	white_	counterclockwise_	loc40_	notarget_	incorrect_or_nopress	block5_flicker_shape2_white_counterclockwise_notarget_incorrect_or_nopressloc40_
152	2	5	246	1	2	0	0	46	0	0	521200046	block5_	flicker_	shape1_	white_	counterclockwise_	loc46_	notarget_	incorrect_or_nopress	block5_flicker_shape1_white_counterclockwise_notarget_incorrect_or_nopressloc46_
153	2	5	246	1	1	0	0	46	0	0	521100046	block5_	flicker_	shape1_	black_	counterclockwise_	loc46_	notarget_	incorrect_or_nopress	block5_flicker_shape1_black_counterclockwise_notarget_incorrect_or_nopressloc46_
154	2	5	211	2	2	0	0	11	0	0	522200011	block5_	flicker_	shape2_	white_	counterclockwise_	loc11_	notarget_	incorrect_or_nopress	block5_flicker_shape2_white_counterclockwise_notarget_incorrect_or_nopressloc11_
155	2	5	228	1	1	0	0	28	0	0	521100028	block5_	flicker_	shape1_	black_	counterclockwise_	loc28_	notarget_	incorrect_or_nopress	block5_flicker_shape1_black_counterclockwise_notarget_incorrect_or_nopressloc28_
156	2	5	221	2	2	0	0	21	0	0	522200021	block5_	flicker_	shape2_	white_	counterclockwise_	loc21_	notarget_	incorrect_or_nopress	block5_flicker_shape2_white_counterclockwise_notarget_incorrect_or_nopressloc21_
157	2	5	251	2	2	0	0	51	0	0	522200051	block5_	flicker_	shape2_	white_	counterclockwise_	loc51_	notarget_	incorrect_or_nopress	block5_flicker_shape2_white_counterclockwise_notarget_incorrect_or_nopressloc51_
158	2	5	257	1	1	0	0	57	0	0	521100057	block5_	flicker_	shape1_	black_	counterclockwise_	loc57_	notarget_	incorrect_or_nopress	block5_flicker_shape1_black_counterclockwise_notarget_incorrect_or_nopressloc57_
159	2	5	257	1	2	0	0	57	0	0	521200057	block5_	flicker_	shape1_	white_	counterclockwise_	loc57_	notarget_	incorrect_or_nopress	block5_flicker_shape1_white_counterclockwise_notarget_incorrect_or_nopressloc57_
160	2	5	245	1	2	0	0	45	0	0	521200045	block5_	flicker_	shape1_	white_	counterclockwise_	loc45_	notarget_	incorrect_or_nopress	block5_flicker_shape1_white_counterclockwise_notarget_incorrect_or_nopressloc45_
161	2	5	206	2	2	0	0	6	0	0	522200006	block5_	flicker_	shape2_	white_	counterclockwise_	loc6_	notarget_	incorrect_or_nopress	block5_flicker_shape2_white_counterclockwise_notarget_incorrect_or_nopressloc6_
162	2	5	212	1	1	0	0	12	0	0	521100012	block5_	flicker_	shape1_	black_	counterclockwise_	loc12_	notarget_	incorrect_or_nopress	block5_flicker_shape1_black_counterclockwise_notarget_incorrect_or_nopressloc12_
163	2	5	206	2	1	0	0	6	0	0	522100006	block5_	flicker_	shape2_	black_	counterclockwise_	loc6_	notarget_	incorrect_or_nopress	block5_flicker_shape2_black_counterclockwise_notarget_incorrect_or_nopressloc6_
164	2	5	229	1	1	0	0	29	0	0	521100029	block5_	flicker_	shape1_	black_	counterclockwise_	loc29_	notarget_	incorrect_or_nopress	block5_flicker_shape1_black_counterclockwise_notarget_incorrect_or_nopressloc29_
165	2	5	218	1	1	0	0	18	0	0	521100018	block5_	flicker_	shape1_	black_	counterclockwise_	loc18_	notarget_	incorrect_or_nopress	block5_flicker_shape1_black_counterclockwise_notarget_incorrect_or_nopressloc18_
166	2	5	263	1	1	0	2	63	2	0	521102063	block5_	flicker_	shape1_	black_	counterclockwise_	loc63_	padding_	incorrect_or_nopress	block5_flicker_shape1_black_counterclockwise_padding_incorrect_or_nopressloc63_
167	2	5	243	2	1	0	2	43	2	0	522102043	block5_	flicker_	shape2_	black_	counterclockwise_	loc43_	padding_	incorrect_or_nopress	block5_flicker_shape2_black_counterclockwise_padding_incorrect_or_nopressloc43_
168	2	5	259	2	2	0	2	59	2	0	522202059	block5_	flicker_	shape2_	white_	counterclockwise_	loc59_	padding_	incorrect_or_nopress	block5_flicker_shape2_white_counterclockwise_padding_incorrect_or_nopressloc59_
169	2	5	229	2	1	0	2	29	2	0	522102029	block5_	flicker_	shape2_	black_	counterclockwise_	loc29_	padding_	incorrect_or_nopress	block5_flicker_shape2_black_counterclockwise_padding_incorrect_or_nopressloc29_
170	2	5	235	1	2	0	2	35	2	0	521202035	block5_	flicker_	shape1_	white_	counterclockwise_	loc35_	padding_	incorrect_or_nopress	block5_flicker_shape1_white_counterclockwise_padding_incorrect_or_nopressloc35_
171	2	5	204	2	1	0	2	4	2	0	522102004	block5_	flicker_	shape2_	black_	counterclockwise_	loc4_	padding_	incorrect_or_nopress	block5_flicker_shape2_black_counterclockwise_padding_incorrect_or_nopressloc4_
172	2	5	257	2	1	0	2	57	2	0	522102057	block5_	flicker_	shape2_	black_	counterclockwise_	loc57_	padding_	incorrect_or_nopress	block5_flicker_shape2_black_counterclockwise_padding_incorrect_or_nopressloc57_
173	2	5	231	1	1	0	1	31	1	0	521101031	block5_	flicker_	shape1_	black_	counterclockwise_	loc31_	istarget_	incorrect_or_nopress	block5_flicker_shape1_black_counterclockwise_istarget_incorrect_or_nopressloc31_
174	2	5	261	1	1	0	2	61	2	0	521102061	block5_	flicker_	shape1_	black_	counterclockwise_	loc61_	padding_	incorrect_or_nopress	block5_flicker_shape1_black_counterclockwise_padding_incorrect_or_nopressloc61_
175	2	5	219	2	2	0	2	19	2	0	522202019	block5_	flicker_	shape2_	white_	counterclockwise_	loc19_	padding_	incorrect_or_nopress	block5_flicker_shape2_white_counterclockwise_padding_incorrect_or_nopressloc19_
176	2	5	241	2	2	0	2	41	2	0	522202041	block5_	flicker_	shape2_	white_	counterclockwise_	loc41_	padding_	incorrect_or_nopress	block5_flicker_shape2_white_counterclockwise_padding_incorrect_or_nopressloc41_
177	2	5	258	1	2	0	2	58	2	0	521202058	block5_	flicker_	shape1_	white_	counterclockwise_	loc58_	padding_	incorrect_or_nopress	block5_flicker_shape1_white_counterclockwise_padding_incorrect_or_nopressloc58_
178	2	5	203	1	2	0	2	3	2	1	521202103	block5_	flicker_	shape1_	white_	counterclockwise_	loc3_	padding_	correct_or_press	block5_flicker_shape1_white_counterclockwise_padding_correct_or_pressloc3_
179	2	5	236	1	1	0	2	36	2	1	521102136	block5_	flicker_	shape1_	black_	counterclockwise_	loc36_	padding_	correct_or_press	block5_flicker_shape1_black_counterclockwise_padding_correct_or_pressloc36_
180	2	5	233	1	2	0	2	33	2	0	521202033	block5_	flicker_	shape1_	white_	counterclockwise_	loc33_	padding_	incorrect_or_nopress	block5_flicker_shape1_white_counterclockwise_padding_incorrect_or_nopressloc33_
181	2	5	232	2	2	0	2	32	2	0	522202032	block5_	flicker_	shape2_	white_	counterclockwise_	loc32_	padding_	incorrect_or_nopress	block5_flicker_shape2_white_counterclockwise_padding_incorrect_or_nopressloc32_
182	2	5	249	1	1	0	0	49	0	0	521100049	block5_	flicker_	shape1_	black_	counterclockwise_	loc49_	notarget_	incorrect_or_nopress	block5_flicker_shape1_black_counterclockwise_notarget_incorrect_or_nopressloc49_
183	2	5	240	1	1	0	0	40	0	0	521100040	block5_	flicker_	shape1_	black_	counterclockwise_	loc40_	notarget_	incorrect_or_nopress	block5_flicker_shape1_black_counterclockwise_notarget_incorrect_or_nopressloc40_
184	2	5	243	2	1	0	0	43	0	0	522100043	block5_	flicker_	shape2_	black_	counterclockwise_	loc43_	notarget_	incorrect_or_nopress	block5_flicker_shape2_black_counterclockwise_notarget_incorrect_or_nopressloc43_
185	2	5	233	2	1	0	0	33	0	0	522100033	block5_	flicker_	shape2_	black_	counterclockwise_	loc33_	notarget_	incorrect_or_nopress	block5_flicker_shape2_black_counterclockwise_notarget_incorrect_or_nopressloc33_
186	2	5	208	2	2	0	0	8	0	0	522200008	block5_	flicker_	shape2_	white_	counterclockwise_	loc8_	notarget_	incorrect_or_nopress	block5_flicker_shape2_white_counterclockwise_notarget_incorrect_or_nopressloc8_
187	2	5	220	2	2	0	0	20	0	0	522200020	block5_	flicker_	shape2_	white_	counterclockwise_	loc20_	notarget_	incorrect_or_nopress	block5_flicker_shape2_white_counterclockwise_notarget_incorrect_or_nopressloc20_
188	2	5	234	1	2	0	0	34	0	0	521200034	block5_	flicker_	shape1_	white_	counterclockwise_	loc34_	notarget_	incorrect_or_nopress	block5_flicker_shape1_white_counterclockwise_notarget_incorrect_or_nopressloc34_
189	2	5	263	1	1	0	0	63	0	0	521100063	block5_	flicker_	shape1_	black_	counterclockwise_	loc63_	notarget_	incorrect_or_nopress	block5_flicker_shape1_black_counterclockwise_notarget_incorrect_or_nopressloc63_
190	2	5	222	1	2	0	0	22	0	0	521200022	block5_	flicker_	shape1_	white_	counterclockwise_	loc22_	notarget_	incorrect_or_nopress	block5_flicker_shape1_white_counterclockwise_notarget_incorrect_or_nopressloc22_
191	2	5	226	1	2	0	0	26	0	0	521200026	block5_	flicker_	shape1_	white_	counterclockwise_	loc26_	notarget_	incorrect_or_nopress	block5_flicker_shape1_white_counterclockwise_notarget_incorrect_or_nopressloc26_
192	2	5	215	2	2	0	0	15	0	0	522200015	block5_	flicker_	shape2_	white_	counterclockwise_	loc15_	notarget_	incorrect_or_nopress	block5_flicker_shape2_white_counterclockwise_notarget_incorrect_or_nopressloc15_
193	2	5	219	1	2	0	0	19	0	0	521200019	block5_	flicker_	shape1_	white_	counterclockwise_	loc19_	notarget_	incorrect_or_nopress	block5_flicker_shape1_white_counterclockwise_notarget_incorrect_or_nopressloc19_
194	2	5	237	1	2	0	0	37	0	0	521200037	block5_	flicker_	shape1_	white_	counterclockwise_	loc37_	notarget_	incorrect_or_nopress	block5_flicker_shape1_white_counterclockwise_notarget_incorrect_or_nopressloc37_
195	2	5	220	2	1	0	0	20	0	0	522100020	block5_	flicker_	shape2_	black_	counterclockwise_	loc20_	notarget_	incorrect_or_nopress	block5_flicker_shape2_black_counterclockwise_notarget_incorrect_or_nopressloc20_
196	2	5	241	2	1	0	0	41	0	0	522100041	block5_	flicker_	shape2_	black_	counterclockwise_	loc41_	notarget_	incorrect_or_nopress	block5_flicker_shape2_black_counterclockwise_notarget_incorrect_or_nopressloc41_
197	2	5	240	2	1	0	0	40	0	0	522100040	block5_	flicker_	shape2_	black_	counterclockwise_	loc40_	notarget_	incorrect_or_nopress	block5_flicker_shape2_black_counterclockwise_notarget_incorrect_or_nopressloc40_
198	2	5	202	2	2	0	0	2	0	0	522200002	block5_	flicker_	shape2_	white_	counterclockwise_	loc2_	notarget_	incorrect_or_nopress	block5_flicker_shape2_white_counterclockwise_notarget_incorrect_or_nopressloc2_
199	2	5	226	1	1	0	0	26	0	0	521100026	block5_	flicker_	shape1_	black_	counterclockwise_	loc26_	notarget_	incorrect_or_nopress	block5_flicker_shape1_black_counterclockwise_notarget_incorrect_or_nopressloc26_
200	2	5	231	1	2	0	0	31	0	0	521200031	block5_	flicker_	shape1_	white_	counterclockwise_	loc31_	notarget_	incorrect_or_nopress	block5_flicker_shape1_white_counterclockwise_notarget_incorrect_or_nopressloc31_
201	2	5	211	2	1	0	0	11	0	0	522100011	block5_	flicker_	shape2_	black_	counterclockwise_	loc11_	notarget_	incorrect_or_nopress	block5_flicker_shape2_black_counterclockwise_notarget_incorrect_or_nopressloc11_
202	2	5	216	2	1	0	0	16	0	0	522100016	block5_	flicker_	shape2_	black_	counterclockwise_	loc16_	notarget_	incorrect_or_nopress	block5_flicker_shape2_black_counterclockwise_notarget_incorrect_or_nopressloc16_
203	2	5	223	1	2	0	0	23	0	0	521200023	block5_	flicker_	shape1_	white_	counterclockwise_	loc23_	notarget_	incorrect_or_nopress	block5_flicker_shape1_white_counterclockwise_notarget_incorrect_or_nopressloc23_
204	2	5	257	2	2	0	0	57	0	0	522200057	block5_	flicker_	shape2_	white_	counterclockwise_	loc57_	notarget_	incorrect_or_nopress	block5_flicker_shape2_white_counterclockwise_notarget_incorrect_or_nopressloc57_
205	2	5	242	1	1	0	0	42	0	0	521100042	block5_	flicker_	shape1_	black_	counterclockwise_	loc42_	notarget_	incorrect_or_nopress	block5_flicker_shape1_black_counterclockwise_notarget_incorrect_or_nopressloc42_
206	2	5	210	1	2	0	0	10	0	0	521200010	block5_	flicker_	shape1_	white_	counterclockwise_	loc10_	notarget_	incorrect_or_nopress	block5_flicker_shape1_white_counterclockwise_notarget_incorrect_or_nopressloc10_
207	2	5	208	1	1	0	0	8	0	0	521100008	block5_	flicker_	shape1_	black_	counterclockwise_	loc8_	notarget_	incorrect_or_nopress	block5_flicker_shape1_black_counterclockwise_notarget_incorrect_or_nopressloc8_
208	2	5	219	2	2	0	0	19	0	0	522200019	block5_	flicker_	shape2_	white_	counterclockwise_	loc19_	notarget_	incorrect_or_nopress	block5_flicker_shape2_white_counterclockwise_notarget_incorrect_or_nopressloc19_
209	2	5	201	2	2	0	0	1	0	0	522200001	block5_	flicker_	shape2_	white_	counterclockwise_	loc1_	notarget_	incorrect_or_nopress	block5_flicker_shape2_white_counterclockwise_notarget_incorrect_or_nopressloc1_
210	2	5	230	1	1	0	0	30	0	0	521100030	block5_	flicker_	shape1_	black_	counterclockwise_	loc30_	notarget_	incorrect_or_nopress	block5_flicker_shape1_black_counterclockwise_notarget_incorrect_or_nopressloc30_
211	2	5	207	1	2	0	0	7	0	0	521200007	block5_	flicker_	shape1_	white_	counterclockwise_	loc7_	notarget_	incorrect_or_nopress	block5_flicker_shape1_white_counterclockwise_notarget_incorrect_or_nopressloc7_
212	2	5	236	2	1	0	0	36	0	0	522100036	block5_	flicker_	shape2_	black_	counterclockwise_	loc36_	notarget_	incorrect_or_nopress	block5_flicker_shape2_black_counterclockwise_notarget_incorrect_or_nopressloc36_
213	2	5	245	1	1	0	0	45	0	0	521100045	block5_	flicker_	shape1_	black_	counterclockwise_	loc45_	notarget_	incorrect_or_nopress	block5_flicker_shape1_black_counterclockwise_notarget_incorrect_or_nopressloc45_
214	2	5	228	1	2	0	0	28	0	0	521200028	block5_	flicker_	shape1_	white_	counterclockwise_	loc28_	notarget_	incorrect_or_nopress	block5_flicker_shape1_white_counterclockwise_notarget_incorrect_or_nopressloc28_
215	2	5	249	2	1	0	0	49	0	0	522100049	block5_	flicker_	shape2_	black_	counterclockwise_	loc49_	notarget_	incorrect_or_nopress	block5_flicker_shape2_black_counterclockwise_notarget_incorrect_or_nopressloc49_
216	2	5	263	2	1	0	0	63	0	0	522100063	block5_	flicker_	shape2_	black_	counterclockwise_	loc63_	notarget_	incorrect_or_nopress	block5_flicker_shape2_black_counterclockwise_notarget_incorrect_or_nopressloc63_
217	2	5	218	2	2	0	2	18	2	0	522202018	block5_	flicker_	shape2_	white_	counterclockwise_	loc18_	padding_	incorrect_or_nopress	block5_flicker_shape2_white_counterclockwise_padding_incorrect_or_nopressloc18_
218	2	5	262	1	2	0	2	62	2	0	521202062	block5_	flicker_	shape1_	white_	counterclockwise_	loc62_	padding_	incorrect_or_nopress	block5_flicker_shape1_white_counterclockwise_padding_incorrect_or_nopressloc62_
219	2	5	211	1	2	0	2	11	2	0	521202011	block5_	flicker_	shape1_	white_	counterclockwise_	loc11_	padding_	incorrect_or_nopress	block5_flicker_shape1_white_counterclockwise_padding_incorrect_or_nopressloc11_
220	2	5	254	2	2	0	2	54	2	0	522202054	block5_	flicker_	shape2_	white_	counterclockwise_	loc54_	padding_	incorrect_or_nopress	block5_flicker_shape2_white_counterclockwise_padding_incorrect_or_nopressloc54_
221	2	5	208	2	2	0	2	8	2	0	522202008	block5_	flicker_	shape2_	white_	counterclockwise_	loc8_	padding_	incorrect_or_nopress	block5_flicker_shape2_white_counterclockwise_padding_incorrect_or_nopressloc8_
222	2	5	222	2	1	0	2	22	2	0	522102022	block5_	flicker_	shape2_	black_	counterclockwise_	loc22_	padding_	incorrect_or_nopress	block5_flicker_shape2_black_counterclockwise_padding_incorrect_or_nopressloc22_
223	2	5	252	1	2	0	2	52	2	0	521202052	block5_	flicker_	shape1_	white_	counterclockwise_	loc52_	padding_	incorrect_or_nopress	block5_flicker_shape1_white_counterclockwise_padding_incorrect_or_nopressloc52_
224	2	5	228	2	1	0	1	28	1	0	522101028	block5_	flicker_	shape2_	black_	counterclockwise_	loc28_	istarget_	incorrect_or_nopress	block5_flicker_shape2_black_counterclockwise_istarget_incorrect_or_nopressloc28_
225	2	5	246	2	1	0	2	46	2	0	522102046	block5_	flicker_	shape2_	black_	counterclockwise_	loc46_	padding_	incorrect_or_nopress	block5_flicker_shape2_black_counterclockwise_padding_incorrect_or_nopressloc46_
226	2	5	232	1	1	0	2	32	2	0	521102032	block5_	flicker_	shape1_	black_	counterclockwise_	loc32_	padding_	incorrect_or_nopress	block5_flicker_shape1_black_counterclockwise_padding_incorrect_or_nopressloc32_
227	2	5	219	1	1	0	2	19	2	0	521102019	block5_	flicker_	shape1_	black_	counterclockwise_	loc19_	padding_	incorrect_or_nopress	block5_flicker_shape1_black_counterclockwise_padding_incorrect_or_nopressloc19_
228	2	5	264	1	2	0	2	64	2	0	521202064	block5_	flicker_	shape1_	white_	counterclockwise_	loc64_	padding_	incorrect_or_nopress	block5_flicker_shape1_white_counterclockwise_padding_incorrect_or_nopressloc64_
229	2	5	227	1	1	0	2	27	2	0	521102027	block5_	flicker_	shape1_	black_	counterclockwise_	loc27_	padding_	incorrect_or_nopress	block5_flicker_shape1_black_counterclockwise_padding_incorrect_or_nopressloc27_
230	2	5	214	2	2	0	2	14	2	1	522202114	block5_	flicker_	shape2_	white_	counterclockwise_	loc14_	padding_	correct_or_press	block5_flicker_shape2_white_counterclockwise_padding_correct_or_pressloc14_
231	2	5	259	1	1	0	2	59	2	1	521102159	block5_	flicker_	shape1_	black_	counterclockwise_	loc59_	padding_	correct_or_press	block5_flicker_shape1_black_counterclockwise_padding_correct_or_pressloc59_
232	2	5	226	2	1	0	2	26	2	0	522102026	block5_	flicker_	shape2_	black_	counterclockwise_	loc26_	padding_	incorrect_or_nopress	block5_flicker_shape2_black_counterclockwise_padding_incorrect_or_nopressloc26_
233	2	5	226	2	1	0	0	26	0	0	522100026	block5_	flicker_	shape2_	black_	counterclockwise_	loc26_	notarget_	incorrect_or_nopress	block5_flicker_shape2_black_counterclockwise_notarget_incorrect_or_nopressloc26_
234	2	5	225	1	1	0	0	25	0	0	521100025	block5_	flicker_	shape1_	black_	counterclockwise_	loc25_	notarget_	incorrect_or_nopress	block5_flicker_shape1_black_counterclockwise_notarget_incorrect_or_nopressloc25_
235	2	5	258	1	1	0	0	58	0	0	521100058	block5_	flicker_	shape1_	black_	counterclockwise_	loc58_	notarget_	incorrect_or_nopress	block5_flicker_shape1_black_counterclockwise_notarget_incorrect_or_nopressloc58_
236	2	5	260	1	2	0	0	60	0	0	521200060	block5_	flicker_	shape1_	white_	counterclockwise_	loc60_	notarget_	incorrect_or_nopress	block5_flicker_shape1_white_counterclockwise_notarget_incorrect_or_nopressloc60_
237	2	5	254	1	1	0	0	54	0	0	521100054	block5_	flicker_	shape1_	black_	counterclockwise_	loc54_	notarget_	incorrect_or_nopress	block5_flicker_shape1_black_counterclockwise_notarget_incorrect_or_nopressloc54_
238	2	5	237	2	1	0	0	37	0	0	522100037	block5_	flicker_	shape2_	black_	counterclockwise_	loc37_	notarget_	incorrect_or_nopress	block5_flicker_shape2_black_counterclockwise_notarget_incorrect_or_nopressloc37_
239	2	5	250	2	2	0	0	50	0	0	522200050	block5_	flicker_	shape2_	white_	counterclockwise_	loc50_	notarget_	incorrect_or_nopress	block5_flicker_shape2_white_counterclockwise_notarget_incorrect_or_nopressloc50_
240	2	5	253	2	1	0	0	53	0	0	522100053	block5_	flicker_	shape2_	black_	counterclockwise_	loc53_	notarget_	incorrect_or_nopress	block5_flicker_shape2_black_counterclockwise_notarget_incorrect_or_nopressloc53_
241	2	5	213	2	2	0	0	13	0	0	522200013	block5_	flicker_	shape2_	white_	counterclockwise_	loc13_	notarget_	incorrect_or_nopress	block5_flicker_shape2_white_counterclockwise_notarget_incorrect_or_nopressloc13_
242	2	5	260	1	1	0	0	60	0	0	521100060	block5_	flicker_	shape1_	black_	counterclockwise_	loc60_	notarget_	incorrect_or_nopress	block5_flicker_shape1_black_counterclockwise_notarget_incorrect_or_nopressloc60_
243	2	5	212	2	1	0	0	12	0	0	522100012	block5_	flicker_	shape2_	black_	counterclockwise_	loc12_	notarget_	incorrect_or_nopress	block5_flicker_shape2_black_counterclockwise_notarget_incorrect_or_nopressloc12_
244	2	5	235	2	2	0	0	35	0	0	522200035	block5_	flicker_	shape2_	white_	counterclockwise_	loc35_	notarget_	incorrect_or_nopress	block5_flicker_shape2_white_counterclockwise_notarget_incorrect_or_nopressloc35_
245	2	5	210	2	1	0	0	10	0	0	522100010	block5_	flicker_	shape2_	black_	counterclockwise_	loc10_	notarget_	incorrect_or_nopress	block5_flicker_shape2_black_counterclockwise_notarget_incorrect_or_nopressloc10_
246	2	5	243	1	1	0	0	43	0	0	521100043	block5_	flicker_	shape1_	black_	counterclockwise_	loc43_	notarget_	incorrect_or_nopress	block5_flicker_shape1_black_counterclockwise_notarget_incorrect_or_nopressloc43_
247	2	5	253	2	2	0	0	53	0	0	522200053	block5_	flicker_	shape2_	white_	counterclockwise_	loc53_	notarget_	incorrect_or_nopress	block5_flicker_shape2_white_counterclockwise_notarget_incorrect_or_nopressloc53_
248	2	5	255	2	2	0	0	55	0	0	522200055	block5_	flicker_	shape2_	white_	counterclockwise_	loc55_	notarget_	incorrect_or_nopress	block5_flicker_shape2_white_counterclockwise_notarget_incorrect_or_nopressloc55_
249	2	5	259	2	2	0	0	59	0	0	522200059	block5_	flicker_	shape2_	white_	counterclockwise_	loc59_	notarget_	incorrect_or_nopress	block5_flicker_shape2_white_counterclockwise_notarget_incorrect_or_nopressloc59_
250	2	5	208	1	2	0	0	8	0	0	521200008	block5_	flicker_	shape1_	white_	counterclockwise_	loc8_	notarget_	incorrect_or_nopress	block5_flicker_shape1_white_counterclockwise_notarget_incorrect_or_nopressloc8_
251	2	5	206	1	1	0	0	6	0	0	521100006	block5_	flicker_	shape1_	black_	counterclockwise_	loc6_	notarget_	incorrect_or_nopress	block5_flicker_shape1_black_counterclockwise_notarget_incorrect_or_nopressloc6_
252	2	5	238	1	1	0	0	38	0	0	521100038	block5_	flicker_	shape1_	black_	counterclockwise_	loc38_	notarget_	incorrect_or_nopress	block5_flicker_shape1_black_counterclockwise_notarget_incorrect_or_nopressloc38_
253	2	5	231	2	1	0	0	31	0	0	522100031	block5_	flicker_	shape2_	black_	counterclockwise_	loc31_	notarget_	incorrect_or_nopress	block5_flicker_shape2_black_counterclockwise_notarget_incorrect_or_nopressloc31_
254	2	5	207	1	1	0	0	7	0	0	521100007	block5_	flicker_	shape1_	black_	counterclockwise_	loc7_	notarget_	incorrect_or_nopress	block5_flicker_shape1_black_counterclockwise_notarget_incorrect_or_nopressloc7_
255	2	5	220	1	1	0	0	20	0	0	521100020	block5_	flicker_	shape1_	black_	counterclockwise_	loc20_	notarget_	incorrect_or_nopress	block5_flicker_shape1_black_counterclockwise_notarget_incorrect_or_nopressloc20_
256	2	5	215	2	1	0	0	15	0	0	522100015	block5_	flicker_	shape2_	black_	counterclockwise_	loc15_	notarget_	incorrect_or_nopress	block5_flicker_shape2_black_counterclockwise_notarget_incorrect_or_nopressloc15_
257	2	5	211	1	1	0	0	11	0	0	521100011	block5_	flicker_	shape1_	black_	counterclockwise_	loc11_	notarget_	incorrect_or_nopress	block5_flicker_shape1_black_counterclockwise_notarget_incorrect_or_nopressloc11_
258	2	5	225	1	2	0	0	25	0	0	521200025	block5_	flicker_	shape1_	white_	counterclockwise_	loc25_	notarget_	incorrect_or_nopress	block5_flicker_shape1_white_counterclockwise_notarget_incorrect_or_nopressloc25_
259	2	5	250	1	1	0	0	50	0	0	521100050	block5_	flicker_	shape1_	black_	counterclockwise_	loc50_	notarget_	incorrect_or_nopress	block5_flicker_shape1_black_counterclockwise_notarget_incorrect_or_nopressloc50_
260	2	5	236	1	2	0	0	36	0	0	521200036	block5_	flicker_	shape1_	white_	counterclockwise_	loc36_	notarget_	incorrect_or_nopress	block5_flicker_shape1_white_counterclockwise_notarget_incorrect_or_nopressloc36_
261	2	5	263	2	2	0	0	63	0	0	522200063	block5_	flicker_	shape2_	white_	counterclockwise_	loc63_	notarget_	incorrect_or_nopress	block5_flicker_shape2_white_counterclockwise_notarget_incorrect_or_nopressloc63_
262	2	5	261	2	2	0	0	61	0	0	522200061	block5_	flicker_	shape2_	white_	counterclockwise_	loc61_	notarget_	incorrect_or_nopress	block5_flicker_shape2_white_counterclockwise_notarget_incorrect_or_nopressloc61_
263	2	5	214	2	1	0	0	14	0	0	522100014	block5_	flicker_	shape2_	black_	counterclockwise_	loc14_	notarget_	incorrect_or_nopress	block5_flicker_shape2_black_counterclockwise_notarget_incorrect_or_nopressloc14_
264	2	5	235	2	1	0	0	35	0	0	522100035	block5_	flicker_	shape2_	black_	counterclockwise_	loc35_	notarget_	incorrect_or_nopress	block5_flicker_shape2_black_counterclockwise_notarget_incorrect_or_nopressloc35_
265	2	5	218	2	2	0	0	18	0	0	522200018	block5_	flicker_	shape2_	white_	counterclockwise_	loc18_	notarget_	incorrect_or_nopress	block5_flicker_shape2_white_counterclockwise_notarget_incorrect_or_nopressloc18_
266	2	5	247	2	1	0	0	47	0	0	522100047	block5_	flicker_	shape2_	black_	counterclockwise_	loc47_	notarget_	incorrect_or_nopress	block5_flicker_shape2_black_counterclockwise_notarget_incorrect_or_nopressloc47_
267	2	5	206	1	2	0	0	6	0	0	521200006	block5_	flicker_	shape1_	white_	counterclockwise_	loc6_	notarget_	incorrect_or_nopress	block5_flicker_shape1_white_counterclockwise_notarget_incorrect_or_nopressloc6_
268	2	5	263	1	2	0	0	63	0	0	521200063	block5_	flicker_	shape1_	white_	counterclockwise_	loc63_	notarget_	incorrect_or_nopress	block5_flicker_shape1_white_counterclockwise_notarget_incorrect_or_nopressloc63_
269	2	5	214	1	2	0	0	14	0	0	521200014	block5_	flicker_	shape1_	white_	counterclockwise_	loc14_	notarget_	incorrect_or_nopress	block5_flicker_shape1_white_counterclockwise_notarget_incorrect_or_nopressloc14_
270	2	5	203	1	2	0	0	3	0	0	521200003	block5_	flicker_	shape1_	white_	counterclockwise_	loc3_	notarget_	incorrect_or_nopress	block5_flicker_shape1_white_counterclockwise_notarget_incorrect_or_nopressloc3_
271	2	5	235	1	2	0	0	35	0	0	521200035	block5_	flicker_	shape1_	white_	counterclockwise_	loc35_	notarget_	incorrect_or_nopress	block5_flicker_shape1_white_counterclockwise_notarget_incorrect_or_nopressloc35_
272	2	5	253	1	1	0	0	53	0	0	521100053	block5_	flicker_	shape1_	black_	counterclockwise_	loc53_	notarget_	incorrect_or_nopress	block5_flicker_shape1_black_counterclockwise_notarget_incorrect_or_nopressloc53_
273	2	5	218	2	1	0	0	18	0	0	522100018	block5_	flicker_	shape2_	black_	counterclockwise_	loc18_	notarget_	incorrect_or_nopress	block5_flicker_shape2_black_counterclockwise_notarget_incorrect_or_nopressloc18_
274	2	5	259	2	1	0	0	59	0	0	522100059	block5_	flicker_	shape2_	black_	counterclockwise_	loc59_	notarget_	incorrect_or_nopress	block5_flicker_shape2_black_counterclockwise_notarget_incorrect_or_nopressloc59_
275	2	5	247	2	2	0	0	47	0	0	522200047	block5_	flicker_	shape2_	white_	counterclockwise_	loc47_	notarget_	incorrect_or_nopress	block5_flicker_shape2_white_counterclockwise_notarget_incorrect_or_nopressloc47_
276	2	5	236	2	2	0	0	36	0	0	522200036	block5_	flicker_	shape2_	white_	counterclockwise_	loc36_	notarget_	incorrect_or_nopress	block5_flicker_shape2_white_counterclockwise_notarget_incorrect_or_nopressloc36_
277	2	5	258	1	2	0	0	58	0	0	521200058	block5_	flicker_	shape1_	white_	counterclockwise_	loc58_	notarget_	incorrect_or_nopress	block5_flicker_shape1_white_counterclockwise_notarget_incorrect_or_nopressloc58_
278	2	5	219	2	1	0	0	19	0	0	522100019	block5_	flicker_	shape2_	black_	counterclockwise_	loc19_	notarget_	incorrect_or_nopress	block5_flicker_shape2_black_counterclockwise_notarget_incorrect_or_nopressloc19_
279	2	5	238	2	1	0	0	38	0	0	522100038	block5_	flicker_	shape2_	black_	counterclockwise_	loc38_	notarget_	incorrect_or_nopress	block5_flicker_shape2_black_counterclockwise_notarget_incorrect_or_nopressloc38_
280	2	5	203	1	1	0	0	3	0	0	521100003	block5_	flicker_	shape1_	black_	counterclockwise_	loc3_	notarget_	incorrect_or_nopress	block5_flicker_shape1_black_counterclockwise_notarget_incorrect_or_nopressloc3_
281	2	5	232	2	1	0	0	32	0	0	522100032	block5_	flicker_	shape2_	black_	counterclockwise_	loc32_	notarget_	incorrect_or_nopress	block5_flicker_shape2_black_counterclockwise_notarget_incorrect_or_nopressloc32_
282	2	5	237	1	1	0	0	37	0	0	521100037	block5_	flicker_	shape1_	black_	counterclockwise_	loc37_	notarget_	incorrect_or_nopress	block5_flicker_shape1_black_counterclockwise_notarget_incorrect_or_nopressloc37_
283	2	5	264	1	1	0	0	64	0	0	521100064	block5_	flicker_	shape1_	black_	counterclockwise_	loc64_	notarget_	incorrect_or_nopress	block5_flicker_shape1_black_counterclockwise_notarget_incorrect_or_nopressloc64_
284	2	5	207	2	1	0	0	7	0	0	522100007	block5_	flicker_	shape2_	black_	counterclockwise_	loc7_	notarget_	incorrect_or_nopress	block5_flicker_shape2_black_counterclockwise_notarget_incorrect_or_nopressloc7_
285	2	5	237	2	2	0	0	37	0	0	522200037	block5_	flicker_	shape2_	white_	counterclockwise_	loc37_	notarget_	incorrect_or_nopress	block5_flicker_shape2_white_counterclockwise_notarget_incorrect_or_nopressloc37_
286	2	5	239	2	1	0	0	39	0	0	522100039	block5_	flicker_	shape2_	black_	counterclockwise_	loc39_	notarget_	incorrect_or_nopress	block5_flicker_shape2_black_counterclockwise_notarget_incorrect_or_nopressloc39_
287	2	5	233	1	2	0	0	33	0	0	521200033	block5_	flicker_	shape1_	white_	counterclockwise_	loc33_	notarget_	incorrect_or_nopress	block5_flicker_shape1_white_counterclockwise_notarget_incorrect_or_nopressloc33_
288	2	5	216	1	1	0	0	16	0	0	521100016	block5_	flicker_	shape1_	black_	counterclockwise_	loc16_	notarget_	incorrect_or_nopress	block5_flicker_shape1_black_counterclockwise_notarget_incorrect_or_nopressloc16_
289	2	5	209	2	2	0	0	9	0	0	522200009	block5_	flicker_	shape2_	white_	counterclockwise_	loc9_	notarget_	incorrect_or_nopress	block5_flicker_shape2_white_counterclockwise_notarget_incorrect_or_nopressloc9_
290	2	5	262	2	2	0	0	62	0	0	522200062	block5_	flicker_	shape2_	white_	counterclockwise_	loc62_	notarget_	incorrect_or_nopress	block5_flicker_shape2_white_counterclockwise_notarget_incorrect_or_nopressloc62_
291	2	5	256	2	2	0	0	56	0	0	522200056	block5_	flicker_	shape2_	white_	counterclockwise_	loc56_	notarget_	incorrect_or_nopress	block5_flicker_shape2_white_counterclockwise_notarget_incorrect_or_nopressloc56_
292	2	5	234	2	1	0	0	34	0	0	522100034	block5_	flicker_	shape2_	black_	counterclockwise_	loc34_	notarget_	incorrect_or_nopress	block5_flicker_shape2_black_counterclockwise_notarget_incorrect_or_nopressloc34_
293	2	5	224	2	1	0	0	24	0	0	522100024	block5_	flicker_	shape2_	black_	counterclockwise_	loc24_	notarget_	incorrect_or_nopress	block5_flicker_shape2_black_counterclockwise_notarget_incorrect_or_nopressloc24_
294	2	5	245	2	1	0	0	45	0	0	522100045	block5_	flicker_	shape2_	black_	counterclockwise_	loc45_	notarget_	incorrect_or_nopress	block5_flicker_shape2_black_counterclockwise_notarget_incorrect_or_nopressloc45_
295	2	5	241	1	1	0	0	41	0	0	521100041	block5_	flicker_	shape1_	black_	counterclockwise_	loc41_	notarget_	incorrect_or_nopress	block5_flicker_shape1_black_counterclockwise_notarget_incorrect_or_nopressloc41_
296	2	5	243	2	2	0	0	43	0	0	522200043	block5_	flicker_	shape2_	white_	counterclockwise_	loc43_	notarget_	incorrect_or_nopress	block5_flicker_shape2_white_counterclockwise_notarget_incorrect_or_nopressloc43_
297	2	5	250	2	1	0	0	50	0	0	522100050	block5_	flicker_	shape2_	black_	counterclockwise_	loc50_	notarget_	incorrect_or_nopress	block5_flicker_shape2_black_counterclockwise_notarget_incorrect_or_nopressloc50_
298	2	5	225	2	2	0	0	25	0	0	522200025	block5_	flicker_	shape2_	white_	counterclockwise_	loc25_	notarget_	incorrect_or_nopress	block5_flicker_shape2_white_counterclockwise_notarget_incorrect_or_nopressloc25_
299	2	5	234	1	1	0	0	34	0	0	521100034	block5_	flicker_	shape1_	black_	counterclockwise_	loc34_	notarget_	incorrect_or_nopress	block5_flicker_shape1_black_counterclockwise_notarget_incorrect_or_nopressloc34_
300	2	5	253	1	2	0	0	53	0	0	521200053	block5_	flicker_	shape1_	white_	counterclockwise_	loc53_	notarget_	incorrect_or_nopress	block5_flicker_shape1_white_counterclockwise_notarget_incorrect_or_nopressloc53_
301	2	5	205	2	2	0	0	5	0	0	522200005	block5_	flicker_	shape2_	white_	counterclockwise_	loc5_	notarget_	incorrect_or_nopress	block5_flicker_shape2_white_counterclockwise_notarget_incorrect_or_nopressloc5_
302	2	5	216	1	2	0	0	16	0	0	521200016	block5_	flicker_	shape1_	white_	counterclockwise_	loc16_	notarget_	incorrect_or_nopress	block5_flicker_shape1_white_counterclockwise_notarget_incorrect_or_nopressloc16_
303	2	5	244	2	2	0	0	44	0	0	522200044	block5_	flicker_	shape2_	white_	counterclockwise_	loc44_	notarget_	incorrect_or_nopress	block5_flicker_shape2_white_counterclockwise_notarget_incorrect_or_nopressloc44_
304	2	5	221	1	1	0	0	21	0	0	521100021	block5_	flicker_	shape1_	black_	counterclockwise_	loc21_	notarget_	incorrect_or_nopress	block5_flicker_shape1_black_counterclockwise_notarget_incorrect_or_nopressloc21_
305	2	5	254	2	1	0	0	54	0	0	522100054	block5_	flicker_	shape2_	black_	counterclockwise_	loc54_	notarget_	incorrect_or_nopress	block5_flicker_shape2_black_counterclockwise_notarget_incorrect_or_nopressloc54_
306	2	5	230	2	2	0	0	30	0	0	522200030	block5_	flicker_	shape2_	white_	counterclockwise_	loc30_	notarget_	incorrect_or_nopress	block5_flicker_shape2_white_counterclockwise_notarget_incorrect_or_nopressloc30_
307	2	5	222	2	2	0	0	22	0	0	522200022	block5_	flicker_	shape2_	white_	counterclockwise_	loc22_	notarget_	incorrect_or_nopress	block5_flicker_shape2_white_counterclockwise_notarget_incorrect_or_nopressloc22_
308	2	5	246	2	1	0	0	46	0	0	522100046	block5_	flicker_	shape2_	black_	counterclockwise_	loc46_	notarget_	incorrect_or_nopress	block5_flicker_shape2_black_counterclockwise_notarget_incorrect_or_nopressloc46_
309	2	5	260	2	1	0	0	60	0	0	522100060	block5_	flicker_	shape2_	black_	counterclockwise_	loc60_	notarget_	incorrect_or_nopress	block5_flicker_shape2_black_counterclockwise_notarget_incorrect_or_nopressloc60_
310	2	5	261	1	1	0	0	61	0	0	521100061	block5_	flicker_	shape1_	black_	counterclockwise_	loc61_	notarget_	incorrect_or_nopress	block5_flicker_shape1_black_counterclockwise_notarget_incorrect_or_nopressloc61_
311	2	5	204	2	1	0	0	4	0	0	522100004	block5_	flicker_	shape2_	black_	counterclockwise_	loc4_	notarget_	incorrect_or_nopress	block5_flicker_shape2_black_counterclockwise_notarget_incorrect_or_nopressloc4_
312	2	5	215	1	2	0	0	15	0	0	521200015	block5_	flicker_	shape1_	white_	counterclockwise_	loc15_	notarget_	incorrect_or_nopress	block5_flicker_shape1_white_counterclockwise_notarget_incorrect_or_nopressloc15_
313	2	5	216	2	2	0	0	16	0	0	522200016	block5_	flicker_	shape2_	white_	counterclockwise_	loc16_	notarget_	incorrect_or_nopress	block5_flicker_shape2_white_counterclockwise_notarget_incorrect_or_nopressloc16_
314	2	5	224	1	1	0	0	24	0	0	521100024	block5_	flicker_	shape1_	black_	counterclockwise_	loc24_	notarget_	incorrect_or_nopress	block5_flicker_shape1_black_counterclockwise_notarget_incorrect_or_nopressloc24_
315	2	5	241	2	2	0	0	41	0	0	522200041	block5_	flicker_	shape2_	white_	counterclockwise_	loc41_	notarget_	incorrect_or_nopress	block5_flicker_shape2_white_counterclockwise_notarget_incorrect_or_nopressloc41_
316	2	5	251	2	1	0	0	51	0	0	522100051	block5_	flicker_	shape2_	black_	counterclockwise_	loc51_	notarget_	incorrect_or_nopress	block5_flicker_shape2_black_counterclockwise_notarget_incorrect_or_nopressloc51_
317	2	5	258	2	1	0	0	58	0	0	522100058	block5_	flicker_	shape2_	black_	counterclockwise_	loc58_	notarget_	incorrect_or_nopress	block5_flicker_shape2_black_counterclockwise_notarget_incorrect_or_nopressloc58_
318	2	5	256	1	2	0	0	56	0	0	521200056	block5_	flicker_	shape1_	white_	counterclockwise_	loc56_	notarget_	incorrect_or_nopress	block5_flicker_shape1_white_counterclockwise_notarget_incorrect_or_nopressloc56_
319	2	5	248	2	1	0	0	48	0	0	522100048	block5_	flicker_	shape2_	black_	counterclockwise_	loc48_	notarget_	incorrect_or_nopress	block5_flicker_shape2_black_counterclockwise_notarget_incorrect_or_nopressloc48_
320	2	5	209	2	1	0	0	9	0	0	522100009	block5_	flicker_	shape2_	black_	counterclockwise_	loc9_	notarget_	incorrect_or_nopress	block5_flicker_shape2_black_counterclockwise_notarget_incorrect_or_nopressloc9_
321	2	5	227	1	2	0	0	27	0	0	521200027	block5_	flicker_	shape1_	white_	counterclockwise_	loc27_	notarget_	incorrect_or_nopress	block5_flicker_shape1_white_counterclockwise_notarget_incorrect_or_nopressloc27_
322	2	5	252	1	2	0	0	52	0	0	521200052	block5_	flicker_	shape1_	white_	counterclockwise_	loc52_	notarget_	incorrect_or_nopress	block5_flicker_shape1_white_counterclockwise_notarget_incorrect_or_nopressloc52_
323	2	5	239	2	2	0	0	39	0	0	522200039	block5_	flicker_	shape2_	white_	counterclockwise_	loc39_	notarget_	incorrect_or_nopress	block5_flicker_shape2_white_counterclockwise_notarget_incorrect_or_nopressloc39_
324	2	5	211	1	2	0	0	11	0	0	521200011	block5_	flicker_	shape1_	white_	counterclockwise_	loc11_	notarget_	incorrect_or_nopress	block5_flicker_shape1_white_counterclockwise_notarget_incorrect_or_nopressloc11_
325	2	5	256	2	1	0	0	56	0	0	522100056	block5_	flicker_	shape2_	black_	counterclockwise_	loc56_	notarget_	incorrect_or_nopress	block5_flicker_shape2_black_counterclockwise_notarget_incorrect_or_nopressloc56_
326	2	5	249	1	2	0	0	49	0	0	521200049	block5_	flicker_	shape1_	white_	counterclockwise_	loc49_	notarget_	incorrect_or_nopress	block5_flicker_shape1_white_counterclockwise_notarget_incorrect_or_nopressloc49_
327	2	5	226	2	2	0	0	26	0	0	522200026	block5_	flicker_	shape2_	white_	counterclockwise_	loc26_	notarget_	incorrect_or_nopress	block5_flicker_shape2_white_counterclockwise_notarget_incorrect_or_nopressloc26_
328	2	5	242	1	2	0	0	42	0	0	521200042	block5_	flicker_	shape1_	white_	counterclockwise_	loc42_	notarget_	incorrect_or_nopress	block5_flicker_shape1_white_counterclockwise_notarget_incorrect_or_nopressloc42_
329	2	5	252	1	1	0	0	52	0	0	521100052	block5_	flicker_	shape1_	black_	counterclockwise_	loc52_	notarget_	incorrect_or_nopress	block5_flicker_shape1_black_counterclockwise_notarget_incorrect_or_nopressloc52_
330	2	5	259	1	2	0	0	59	0	0	521200059	block5_	flicker_	shape1_	white_	counterclockwise_	loc59_	notarget_	incorrect_or_nopress	block5_flicker_shape1_white_counterclockwise_notarget_incorrect_or_nopressloc59_
331	2	5	224	1	2	0	0	24	0	0	521200024	block5_	flicker_	shape1_	white_	counterclockwise_	loc24_	notarget_	incorrect_or_nopress	block5_flicker_shape1_white_counterclockwise_notarget_incorrect_or_nopressloc24_
332	2	5	247	1	2	0	0	47	0	0	521200047	block5_	flicker_	shape1_	white_	counterclockwise_	loc47_	notarget_	incorrect_or_nopress	block5_flicker_shape1_white_counterclockwise_notarget_incorrect_or_nopressloc47_
333	2	5	219	1	1	0	0	19	0	0	521100019	block5_	flicker_	shape1_	black_	counterclockwise_	loc19_	notarget_	incorrect_or_nopress	block5_flicker_shape1_black_counterclockwise_notarget_incorrect_or_nopressloc19_
334	2	5	242	2	2	0	0	42	0	0	522200042	block5_	flicker_	shape2_	white_	counterclockwise_	loc42_	notarget_	incorrect_or_nopress	block5_flicker_shape2_white_counterclockwise_notarget_incorrect_or_nopressloc42_
335	2	5	214	1	1	0	0	14	0	0	521100014	block5_	flicker_	shape1_	black_	counterclockwise_	loc14_	notarget_	incorrect_or_nopress	block5_flicker_shape1_black_counterclockwise_notarget_incorrect_or_nopressloc14_
336	2	5	202	1	1	0	0	2	0	0	521100002	block5_	flicker_	shape1_	black_	counterclockwise_	loc2_	notarget_	incorrect_or_nopress	block5_flicker_shape1_black_counterclockwise_notarget_incorrect_or_nopressloc2_
337	2	5	238	2	2	0	0	38	0	0	522200038	block5_	flicker_	shape2_	white_	counterclockwise_	loc38_	notarget_	incorrect_or_nopress	block5_flicker_shape2_white_counterclockwise_notarget_incorrect_or_nopressloc38_
338	2	5	249	2	2	0	0	49	0	0	522200049	block5_	flicker_	shape2_	white_	counterclockwise_	loc49_	notarget_	incorrect_or_nopress	block5_flicker_shape2_white_counterclockwise_notarget_incorrect_or_nopressloc49_
339	2	5	262	1	1	0	0	62	0	0	521100062	block5_	flicker_	shape1_	black_	counterclockwise_	loc62_	notarget_	incorrect_or_nopress	block5_flicker_shape1_black_counterclockwise_notarget_incorrect_or_nopressloc62_
340	2	5	239	1	1	0	0	39	0	0	521100039	block5_	flicker_	shape1_	black_	counterclockwise_	loc39_	notarget_	incorrect_or_nopress	block5_flicker_shape1_black_counterclockwise_notarget_incorrect_or_nopressloc39_
341	2	5	255	1	1	0	0	55	0	0	521100055	block5_	flicker_	shape1_	black_	counterclockwise_	loc55_	notarget_	incorrect_or_nopress	block5_flicker_shape1_black_counterclockwise_notarget_incorrect_or_nopressloc55_
342	2	5	208	2	1	0	0	8	0	0	522100008	block5_	flicker_	shape2_	black_	counterclockwise_	loc8_	notarget_	incorrect_or_nopress	block5_flicker_shape2_black_counterclockwise_notarget_incorrect_or_nopressloc8_
343	2	5	255	1	2	0	0	55	0	0	521200055	block5_	flicker_	shape1_	white_	counterclockwise_	loc55_	notarget_	incorrect_or_nopress	block5_flicker_shape1_white_counterclockwise_notarget_incorrect_or_nopressloc55_
344	2	5	245	2	2	0	0	45	0	0	522200045	block5_	flicker_	shape2_	white_	counterclockwise_	loc45_	notarget_	incorrect_or_nopress	block5_flicker_shape2_white_counterclockwise_notarget_incorrect_or_nopressloc45_
345	2	5	210	2	2	0	0	10	0	0	522200010	block5_	flicker_	shape2_	white_	counterclockwise_	loc10_	notarget_	incorrect_or_nopress	block5_flicker_shape2_white_counterclockwise_notarget_incorrect_or_nopressloc10_
346	2	5	248	1	2	0	0	48	0	0	521200048	block5_	flicker_	shape1_	white_	counterclockwise_	loc48_	notarget_	incorrect_or_nopress	block5_flicker_shape1_white_counterclockwise_notarget_incorrect_or_nopressloc48_
347	2	5	213	2	1	0	0	13	0	0	522100013	block5_	flicker_	shape2_	black_	counterclockwise_	loc13_	notarget_	incorrect_or_nopress	block5_flicker_shape2_black_counterclockwise_notarget_incorrect_or_nopressloc13_
348	2	5	223	1	1	0	0	23	0	0	521100023	block5_	flicker_	shape1_	black_	counterclockwise_	loc23_	notarget_	incorrect_or_nopress	block5_flicker_shape1_black_counterclockwise_notarget_incorrect_or_nopressloc23_
349	2	5	233	1	1	0	0	33	0	0	521100033	block5_	flicker_	shape1_	black_	counterclockwise_	loc33_	notarget_	incorrect_or_nopress	block5_flicker_shape1_black_counterclockwise_notarget_incorrect_or_nopressloc33_
350	2	5	252	2	1	0	0	52	0	0	522100052	block5_	flicker_	shape2_	black_	counterclockwise_	loc52_	notarget_	incorrect_or_nopress	block5_flicker_shape2_black_counterclockwise_notarget_incorrect_or_nopressloc52_
351	2	5	232	1	1	0	0	32	0	0	521100032	block5_	flicker_	shape1_	black_	counterclockwise_	loc32_	notarget_	incorrect_or_nopress	block5_flicker_shape1_black_counterclockwise_notarget_incorrect_or_nopressloc32_
352	2	5	261	2	1	0	0	61	0	0	522100061	block5_	flicker_	shape2_	black_	counterclockwise_	loc61_	notarget_	incorrect_or_nopress	block5_flicker_shape2_black_counterclockwise_notarget_incorrect_or_nopressloc61_
353	2	5	232	1	2	0	0	32	0	0	521200032	block5_	flicker_	shape1_	white_	counterclockwise_	loc32_	notarget_	incorrect_or_nopress	block5_flicker_shape1_white_counterclockwise_notarget_incorrect_or_nopressloc32_
354	2	5	240	1	2	0	0	40	0	0	521200040	block5_	flicker_	shape1_	white_	counterclockwise_	loc40_	notarget_	incorrect_or_nopress	block5_flicker_shape1_white_counterclockwise_notarget_incorrect_or_nopressloc40_
355	2	5	217	1	1	0	0	17	0	0	521100017	block5_	flicker_	shape1_	black_	counterclockwise_	loc17_	notarget_	incorrect_or_nopress	block5_flicker_shape1_black_counterclockwise_notarget_incorrect_or_nopressloc17_
356	2	5	259	1	1	0	0	59	0	0	521100059	block5_	flicker_	shape1_	black_	counterclockwise_	loc59_	notarget_	incorrect_or_nopress	block5_flicker_shape1_black_counterclockwise_notarget_incorrect_or_nopressloc59_
357	2	5	204	2	2	0	0	4	0	0	522200004	block5_	flicker_	shape2_	white_	counterclockwise_	loc4_	notarget_	incorrect_or_nopress	block5_flicker_shape2_white_counterclockwise_notarget_incorrect_or_nopressloc4_
358	2	5	223	2	2	0	0	23	0	0	522200023	block5_	flicker_	shape2_	white_	counterclockwise_	loc23_	notarget_	incorrect_or_nopress	block5_flicker_shape2_white_counterclockwise_notarget_incorrect_or_nopressloc23_
359	2	5	202	2	1	0	0	2	0	0	522100002	block5_	flicker_	shape2_	black_	counterclockwise_	loc2_	notarget_	incorrect_or_nopress	block5_flicker_shape2_black_counterclockwise_notarget_incorrect_or_nopressloc2_
360	2	5	231	1	1	0	0	31	0	0	521100031	block5_	flicker_	shape1_	black_	counterclockwise_	loc31_	notarget_	incorrect_or_nopress	block5_flicker_shape1_black_counterclockwise_notarget_incorrect_or_nopressloc31_
361	2	5	205	1	2	0	0	5	0	0	521200005	block5_	flicker_	shape1_	white_	counterclockwise_	loc5_	notarget_	incorrect_or_nopress	block5_flicker_shape1_white_counterclockwise_notarget_incorrect_or_nopressloc5_
362	2	5	227	2	2	0	0	27	0	0	522200027	block5_	flicker_	shape2_	white_	counterclockwise_	loc27_	notarget_	incorrect_or_nopress	block5_flicker_shape2_white_counterclockwise_notarget_incorrect_or_nopressloc27_
363	2	5	243	1	2	0	0	43	0	0	521200043	block5_	flicker_	shape1_	white_	counterclockwise_	loc43_	notarget_	incorrect_or_nopress	block5_flicker_shape1_white_counterclockwise_notarget_incorrect_or_nopressloc43_
364	2	5	222	2	1	0	0	22	0	0	522100022	block5_	flicker_	shape2_	black_	counterclockwise_	loc22_	notarget_	incorrect_or_nopress	block5_flicker_shape2_black_counterclockwise_notarget_incorrect_or_nopressloc22_
365	2	5	220	1	2	0	0	20	0	0	521200020	block5_	flicker_	shape1_	white_	counterclockwise_	loc20_	notarget_	incorrect_or_nopress	block5_flicker_shape1_white_counterclockwise_notarget_incorrect_or_nopressloc20_
366	2	5	229	1	2	0	0	29	0	0	521200029	block5_	flicker_	shape1_	white_	counterclockwise_	loc29_	notarget_	incorrect_or_nopress	block5_flicker_shape1_white_counterclockwise_notarget_incorrect_or_nopressloc29_
367	2	5	246	2	2	0	0	46	0	0	522200046	block5_	flicker_	shape2_	white_	counterclockwise_	loc46_	notarget_	incorrect_or_nopress	block5_flicker_shape2_white_counterclockwise_notarget_incorrect_or_nopressloc46_
368	2	5	231	2	2	0	0	31	0	0	522200031	block5_	flicker_	shape2_	white_	counterclockwise_	loc31_	notarget_	incorrect_or_nopress	block5_flicker_shape2_white_counterclockwise_notarget_incorrect_or_nopressloc31_
369	2	5	202	1	2	0	0	2	0	0	521200002	block5_	flicker_	shape1_	white_	counterclockwise_	loc2_	notarget_	incorrect_or_nopress	block5_flicker_shape1_white_counterclockwise_notarget_incorrect_or_nopressloc2_
370	2	5	203	2	1	0	0	3	0	0	522100003	block5_	flicker_	shape2_	black_	counterclockwise_	loc3_	notarget_	incorrect_or_nopress	block5_flicker_shape2_black_counterclockwise_notarget_incorrect_or_nopressloc3_
371	2	5	261	1	2	0	0	61	0	0	521200061	block5_	flicker_	shape1_	white_	counterclockwise_	loc61_	notarget_	incorrect_or_nopress	block5_flicker_shape1_white_counterclockwise_notarget_incorrect_or_nopressloc61_
372	2	5	244	1	1	0	0	44	0	0	521100044	block5_	flicker_	shape1_	black_	counterclockwise_	loc44_	notarget_	incorrect_or_nopress	block5_flicker_shape1_black_counterclockwise_notarget_incorrect_or_nopressloc44_
373	2	5	258	2	2	0	0	58	0	0	522200058	block5_	flicker_	shape2_	white_	counterclockwise_	loc58_	notarget_	incorrect_or_nopress	block5_flicker_shape2_white_counterclockwise_notarget_incorrect_or_nopressloc58_
374	2	5	235	1	1	0	0	35	0	0	521100035	block5_	flicker_	shape1_	black_	counterclockwise_	loc35_	notarget_	incorrect_or_nopress	block5_flicker_shape1_black_counterclockwise_notarget_incorrect_or_nopressloc35_
375	2	5	218	1	2	0	0	18	0	0	521200018	block5_	flicker_	shape1_	white_	counterclockwise_	loc18_	notarget_	incorrect_or_nopress	block5_flicker_shape1_white_counterclockwise_notarget_incorrect_or_nopressloc18_
376	2	5	225	2	1	0	0	25	0	0	522100025	block5_	flicker_	shape2_	black_	counterclockwise_	loc25_	notarget_	incorrect_or_nopress	block5_flicker_shape2_black_counterclockwise_notarget_incorrect_or_nopressloc25_
377	2	5	224	2	2	0	0	24	0	0	522200024	block5_	flicker_	shape2_	white_	counterclockwise_	loc24_	notarget_	incorrect_or_nopress	block5_flicker_shape2_white_counterclockwise_notarget_incorrect_or_nopressloc24_
378	2	5	262	1	2	0	0	62	0	0	521200062	block5_	flicker_	shape1_	white_	counterclockwise_	loc62_	notarget_	incorrect_or_nopress	block5_flicker_shape1_white_counterclockwise_notarget_incorrect_or_nopressloc62_
379	2	5	262	2	1	0	0	62	0	0	522100062	block5_	flicker_	shape2_	black_	counterclockwise_	loc62_	notarget_	incorrect_or_nopress	block5_flicker_shape2_black_counterclockwise_notarget_incorrect_or_nopressloc62_
380	2	5	210	1	1	0	0	10	0	0	521100010	block5_	flicker_	shape1_	black_	counterclockwise_	loc10_	notarget_	incorrect_or_nopress	block5_flicker_shape1_black_counterclockwise_notarget_incorrect_or_nopressloc10_
381	2	5	260	2	2	0	0	60	0	0	522200060	block5_	flicker_	shape2_	white_	counterclockwise_	loc60_	notarget_	incorrect_or_nopress	block5_flicker_shape2_white_counterclockwise_notarget_incorrect_or_nopressloc60_
382	2	5	223	2	1	0	0	23	0	0	522100023	block5_	flicker_	shape2_	black_	counterclockwise_	loc23_	notarget_	incorrect_or_nopress	block5_flicker_shape2_black_counterclockwise_notarget_incorrect_or_nopressloc23_
383	2	5	222	1	1	0	2	22	2	0	521102022	block5_	flicker_	shape1_	black_	counterclockwise_	loc22_	padding_	incorrect_or_nopress	block5_flicker_shape1_black_counterclockwise_padding_incorrect_or_nopressloc22_
384	2	5	218	1	2	0	2	18	2	0	521202018	block5_	flicker_	shape1_	white_	counterclockwise_	loc18_	padding_	incorrect_or_nopress	block5_flicker_shape1_white_counterclockwise_padding_incorrect_or_nopressloc18_
385	2	5	255	2	1	0	2	55	2	0	522102055	block5_	flicker_	shape2_	black_	counterclockwise_	loc55_	padding_	incorrect_or_nopress	block5_flicker_shape2_black_counterclockwise_padding_incorrect_or_nopressloc55_
386	2	5	206	2	1	0	2	6	2	0	522102006	block5_	flicker_	shape2_	black_	counterclockwise_	loc6_	padding_	incorrect_or_nopress	block5_flicker_shape2_black_counterclockwise_padding_incorrect_or_nopressloc6_
387	2	5	257	2	2	0	2	57	2	0	522202057	block5_	flicker_	shape2_	white_	counterclockwise_	loc57_	padding_	incorrect_or_nopress	block5_flicker_shape2_white_counterclockwise_padding_incorrect_or_nopressloc57_
388	2	5	227	1	2	0	2	27	2	0	521202027	block5_	flicker_	shape1_	white_	counterclockwise_	loc27_	padding_	incorrect_or_nopress	block5_flicker_shape1_white_counterclockwise_padding_incorrect_or_nopressloc27_
389	2	5	263	1	2	0	2	63	2	0	521202063	block5_	flicker_	shape1_	white_	counterclockwise_	loc63_	padding_	incorrect_or_nopress	block5_flicker_shape1_white_counterclockwise_padding_incorrect_or_nopressloc63_
390	2	5	221	2	2	0	1	21	1	0	522201021	block5_	flicker_	shape2_	white_	counterclockwise_	loc21_	istarget_	incorrect_or_nopress	block5_flicker_shape2_white_counterclockwise_istarget_incorrect_or_nopressloc21_
391	2	5	258	2	2	0	2	58	2	0	522202058	block5_	flicker_	shape2_	white_	counterclockwise_	loc58_	padding_	incorrect_or_nopress	block5_flicker_shape2_white_counterclockwise_padding_incorrect_or_nopressloc58_
392	2	5	201	2	1	0	2	1	2	0	522102001	block5_	flicker_	shape2_	black_	counterclockwise_	loc1_	padding_	incorrect_or_nopress	block5_flicker_shape2_black_counterclockwise_padding_incorrect_or_nopressloc1_
393	2	5	234	1	1	0	2	34	2	0	521102034	block5_	flicker_	shape1_	black_	counterclockwise_	loc34_	padding_	incorrect_or_nopress	block5_flicker_shape1_black_counterclockwise_padding_incorrect_or_nopressloc34_
394	2	5	219	1	1	0	2	19	2	0	521102019	block5_	flicker_	shape1_	black_	counterclockwise_	loc19_	padding_	incorrect_or_nopress	block5_flicker_shape1_black_counterclockwise_padding_incorrect_or_nopressloc19_
395	2	5	236	2	1	0	2	36	2	1	522102136	block5_	flicker_	shape2_	black_	counterclockwise_	loc36_	padding_	correct_or_press	block5_flicker_shape2_black_counterclockwise_padding_correct_or_pressloc36_
396	2	5	246	1	2	0	2	46	2	1	521202146	block5_	flicker_	shape1_	white_	counterclockwise_	loc46_	padding_	correct_or_press	block5_flicker_shape1_white_counterclockwise_padding_correct_or_pressloc46_
397	2	5	229	1	1	0	2	29	2	0	521102029	block5_	flicker_	shape1_	black_	counterclockwise_	loc29_	padding_	incorrect_or_nopress	block5_flicker_shape1_black_counterclockwise_padding_incorrect_or_nopressloc29_
398	2	5	232	2	2	0	2	32	2	0	522202032	block5_	flicker_	shape2_	white_	counterclockwise_	loc32_	padding_	incorrect_or_nopress	block5_flicker_shape2_white_counterclockwise_padding_incorrect_or_nopressloc32_
399	2	5	209	1	1	0	0	9	0	0	521100009	block5_	flicker_	shape1_	black_	counterclockwise_	loc9_	notarget_	incorrect_or_nopress	block5_flicker_shape1_black_counterclockwise_notarget_incorrect_or_nopressloc9_
400	2	5	212	1	2	0	0	12	0	0	521200012	block5_	flicker_	shape1_	white_	counterclockwise_	loc12_	notarget_	incorrect_or_nopress	block5_flicker_shape1_white_counterclockwise_notarget_incorrect_or_nopressloc12_
401	2	5	221	1	2	0	0	21	0	0	521200021	block5_	flicker_	shape1_	white_	counterclockwise_	loc21_	notarget_	incorrect_or_nopress	block5_flicker_shape1_white_counterclockwise_notarget_incorrect_or_nopressloc21_
402	2	5	212	2	2	0	0	12	0	0	522200012	block5_	flicker_	shape2_	white_	counterclockwise_	loc12_	notarget_	incorrect_or_nopress	block5_flicker_shape2_white_counterclockwise_notarget_incorrect_or_nopressloc12_
403	2	5	229	2	1	0	0	29	0	0	522100029	block5_	flicker_	shape2_	black_	counterclockwise_	loc29_	notarget_	incorrect_or_nopress	block5_flicker_shape2_black_counterclockwise_notarget_incorrect_or_nopressloc29_
404	2	5	217	2	2	0	0	17	0	0	522200017	block5_	flicker_	shape2_	white_	counterclockwise_	loc17_	notarget_	incorrect_or_nopress	block5_flicker_shape2_white_counterclockwise_notarget_incorrect_or_nopressloc17_
405	2	5	244	1	2	0	0	44	0	0	521200044	block5_	flicker_	shape1_	white_	counterclockwise_	loc44_	notarget_	incorrect_or_nopress	block5_flicker_shape1_white_counterclockwise_notarget_incorrect_or_nopressloc44_
406	2	5	201	1	1	0	0	1	0	0	521100001	block5_	flicker_	shape1_	black_	counterclockwise_	loc1_	notarget_	incorrect_or_nopress	block5_flicker_shape1_black_counterclockwise_notarget_incorrect_or_nopressloc1_
407	2	5	247	1	1	0	0	47	0	0	521100047	block5_	flicker_	shape1_	black_	counterclockwise_	loc47_	notarget_	incorrect_or_nopress	block5_flicker_shape1_black_counterclockwise_notarget_incorrect_or_nopressloc47_
408	2	5	209	1	2	0	0	9	0	0	521200009	block5_	flicker_	shape1_	white_	counterclockwise_	loc9_	notarget_	incorrect_or_nopress	block5_flicker_shape1_white_counterclockwise_notarget_incorrect_or_nopressloc9_
409	2	5	221	2	1	0	0	21	0	0	522100021	block5_	flicker_	shape2_	black_	counterclockwise_	loc21_	notarget_	incorrect_or_nopress	block5_flicker_shape2_black_counterclockwise_notarget_incorrect_or_nopressloc21_
410	2	5	239	1	2	0	0	39	0	0	521200039	block5_	flicker_	shape1_	white_	counterclockwise_	loc39_	notarget_	incorrect_or_nopress	block5_flicker_shape1_white_counterclockwise_notarget_incorrect_or_nopressloc39_
411	2	5	213	1	2	0	0	13	0	0	521200013	block5_	flicker_	shape1_	white_	counterclockwise_	loc13_	notarget_	incorrect_or_nopress	block5_flicker_shape1_white_counterclockwise_notarget_incorrect_or_nopressloc13_
412	2	5	205	2	1	0	0	5	0	0	522100005	block5_	flicker_	shape2_	black_	counterclockwise_	loc5_	notarget_	incorrect_or_nopress	block5_flicker_shape2_black_counterclockwise_notarget_incorrect_or_nopressloc5_
413	2	5	255	2	1	0	0	55	0	0	522100055	block5_	flicker_	shape2_	black_	counterclockwise_	loc55_	notarget_	incorrect_or_nopress	block5_flicker_shape2_black_counterclockwise_notarget_incorrect_or_nopressloc55_
414	2	5	256	1	1	0	0	56	0	0	521100056	block5_	flicker_	shape1_	black_	counterclockwise_	loc56_	notarget_	incorrect_or_nopress	block5_flicker_shape1_black_counterclockwise_notarget_incorrect_or_nopressloc56_
415	2	5	229	2	2	0	0	29	0	0	522200029	block5_	flicker_	shape2_	white_	counterclockwise_	loc29_	notarget_	incorrect_or_nopress	block5_flicker_shape2_white_counterclockwise_notarget_incorrect_or_nopressloc29_
416	2	5	205	1	1	0	0	5	0	0	521100005	block5_	flicker_	shape1_	black_	counterclockwise_	loc5_	notarget_	incorrect_or_nopress	block5_flicker_shape1_black_counterclockwise_notarget_incorrect_or_nopressloc5_
417	2	5	203	2	2	0	0	3	0	0	522200003	block5_	flicker_	shape2_	white_	counterclockwise_	loc3_	notarget_	incorrect_or_nopress	block5_flicker_shape2_white_counterclockwise_notarget_incorrect_or_nopressloc3_
418	2	5	213	1	1	0	0	13	0	0	521100013	block5_	flicker_	shape1_	black_	counterclockwise_	loc13_	notarget_	incorrect_or_nopress	block5_flicker_shape1_black_counterclockwise_notarget_incorrect_or_nopressloc13_
419	2	5	246	1	1	0	2	46	2	0	521102046	block5_	flicker_	shape1_	black_	counterclockwise_	loc46_	padding_	incorrect_or_nopress	block5_flicker_shape1_black_counterclockwise_padding_incorrect_or_nopressloc46_
420	2	5	262	2	2	0	0	62	0	0	522200062	block5_	flicker_	shape2_	white_	counterclockwise_	loc62_	notarget_	incorrect_or_nopress	block5_flicker_shape2_white_counterclockwise_notarget_incorrect_or_nopressloc62_
421	2	5	232	2	2	0	0	32	0	0	522200032	block5_	flicker_	shape2_	white_	counterclockwise_	loc32_	notarget_	incorrect_or_nopress	block5_flicker_shape2_white_counterclockwise_notarget_incorrect_or_nopressloc32_
422	2	5	209	2	1	0	0	9	0	0	522100009	block5_	flicker_	shape2_	black_	counterclockwise_	loc9_	notarget_	incorrect_or_nopress	block5_flicker_shape2_black_counterclockwise_notarget_incorrect_or_nopressloc9_
423	2	5	256	1	2	0	0	56	0	0	521200056	block5_	flicker_	shape1_	white_	counterclockwise_	loc56_	notarget_	incorrect_or_nopress	block5_flicker_shape1_white_counterclockwise_notarget_incorrect_or_nopressloc56_
424	2	5	212	2	1	0	0	12	0	0	522100012	block5_	flicker_	shape2_	black_	counterclockwise_	loc12_	notarget_	incorrect_or_nopress	block5_flicker_shape2_black_counterclockwise_notarget_incorrect_or_nopressloc12_
425	2	5	235	1	2	0	0	35	0	0	521200035	block5_	flicker_	shape1_	white_	counterclockwise_	loc35_	notarget_	incorrect_or_nopress	block5_flicker_shape1_white_counterclockwise_notarget_incorrect_or_nopressloc35_
426	2	5	232	1	2	0	0	32	0	0	521200032	block5_	flicker_	shape1_	white_	counterclockwise_	loc32_	notarget_	incorrect_or_nopress	block5_flicker_shape1_white_counterclockwise_notarget_incorrect_or_nopressloc32_
427	2	5	201	2	2	0	0	1	0	0	522200001	block5_	flicker_	shape2_	white_	counterclockwise_	loc1_	notarget_	incorrect_or_nopress	block5_flicker_shape2_white_counterclockwise_notarget_incorrect_or_nopressloc1_
428	2	5	212	1	1	0	0	12	0	0	521100012	block5_	flicker_	shape1_	black_	counterclockwise_	loc12_	notarget_	incorrect_or_nopress	block5_flicker_shape1_black_counterclockwise_notarget_incorrect_or_nopressloc12_
429	2	5	211	2	2	0	0	11	0	0	522200011	block5_	flicker_	shape2_	white_	counterclockwise_	loc11_	notarget_	incorrect_or_nopress	block5_flicker_shape2_white_counterclockwise_notarget_incorrect_or_nopressloc11_
430	2	5	262	2	1	0	0	62	0	0	522100062	block5_	flicker_	shape2_	black_	counterclockwise_	loc62_	notarget_	incorrect_or_nopress	block5_flicker_shape2_black_counterclockwise_notarget_incorrect_or_nopressloc62_
431	2	5	205	1	2	0	0	5	0	0	521200005	block5_	flicker_	shape1_	white_	counterclockwise_	loc5_	notarget_	incorrect_or_nopress	block5_flicker_shape1_white_counterclockwise_notarget_incorrect_or_nopressloc5_
432	2	5	248	2	2	0	0	48	0	0	522200048	block5_	flicker_	shape2_	white_	counterclockwise_	loc48_	notarget_	incorrect_or_nopress	block5_flicker_shape2_white_counterclockwise_notarget_incorrect_or_nopressloc48_
433	2	5	244	2	1	0	0	44	0	0	522100044	block5_	flicker_	shape2_	black_	counterclockwise_	loc44_	notarget_	incorrect_or_nopress	block5_flicker_shape2_black_counterclockwise_notarget_incorrect_or_nopressloc44_
434	2	5	240	1	1	0	0	40	0	0	521100040	block5_	flicker_	shape1_	black_	counterclockwise_	loc40_	notarget_	incorrect_or_nopress	block5_flicker_shape1_black_counterclockwise_notarget_incorrect_or_nopressloc40_
435	2	5	247	1	1	0	0	47	0	0	521100047	block5_	flicker_	shape1_	black_	counterclockwise_	loc47_	notarget_	incorrect_or_nopress	block5_flicker_shape1_black_counterclockwise_notarget_incorrect_or_nopressloc47_
436	2	5	225	2	1	0	0	25	0	0	522100025	block5_	flicker_	shape2_	black_	counterclockwise_	loc25_	notarget_	incorrect_or_nopress	block5_flicker_shape2_black_counterclockwise_notarget_incorrect_or_nopressloc25_
437	2	5	234	2	1	0	0	34	0	0	522100034	block5_	flicker_	shape2_	black_	counterclockwise_	loc34_	notarget_	incorrect_or_nopress	block5_flicker_shape2_black_counterclockwise_notarget_incorrect_or_nopressloc34_
438	2	5	256	2	2	0	0	56	0	0	522200056	block5_	flicker_	shape2_	white_	counterclockwise_	loc56_	notarget_	incorrect_or_nopress	block5_flicker_shape2_white_counterclockwise_notarget_incorrect_or_nopressloc56_
439	2	5	235	1	1	0	0	35	0	0	521100035	block5_	flicker_	shape1_	black_	counterclockwise_	loc35_	notarget_	incorrect_or_nopress	block5_flicker_shape1_black_counterclockwise_notarget_incorrect_or_nopressloc35_
440	2	5	216	1	1	0	0	16	0	0	521100016	block5_	flicker_	shape1_	black_	counterclockwise_	loc16_	notarget_	incorrect_or_nopress	block5_flicker_shape1_black_counterclockwise_notarget_incorrect_or_nopressloc16_
441	2	5	217	1	2	0	0	17	0	0	521200017	block5_	flicker_	shape1_	white_	counterclockwise_	loc17_	notarget_	incorrect_or_nopress	block5_flicker_shape1_white_counterclockwise_notarget_incorrect_or_nopressloc17_
442	2	5	260	1	2	0	0	60	0	0	521200060	block5_	flicker_	shape1_	white_	counterclockwise_	loc60_	notarget_	incorrect_or_nopress	block5_flicker_shape1_white_counterclockwise_notarget_incorrect_or_nopressloc60_
443	2	5	215	2	2	0	0	15	0	0	522200015	block5_	flicker_	shape2_	white_	counterclockwise_	loc15_	notarget_	incorrect_or_nopress	block5_flicker_shape2_white_counterclockwise_notarget_incorrect_or_nopressloc15_
444	2	5	260	2	1	0	0	60	0	0	522100060	block5_	flicker_	shape2_	black_	counterclockwise_	loc60_	notarget_	incorrect_or_nopress	block5_flicker_shape2_black_counterclockwise_notarget_incorrect_or_nopressloc60_
445	2	5	202	2	1	0	0	2	0	0	522100002	block5_	flicker_	shape2_	black_	counterclockwise_	loc2_	notarget_	incorrect_or_nopress	block5_flicker_shape2_black_counterclockwise_notarget_incorrect_or_nopressloc2_
446	2	5	264	2	2	0	0	64	0	0	522200064	block5_	flicker_	shape2_	white_	counterclockwise_	loc64_	notarget_	incorrect_or_nopress	block5_flicker_shape2_white_counterclockwise_notarget_incorrect_or_nopressloc64_
447	2	5	259	2	2	0	0	59	0	0	522200059	block5_	flicker_	shape2_	white_	counterclockwise_	loc59_	notarget_	incorrect_or_nopress	block5_flicker_shape2_white_counterclockwise_notarget_incorrect_or_nopressloc59_
448	2	5	203	2	2	0	0	3	0	0	522200003	block5_	flicker_	shape2_	white_	counterclockwise_	loc3_	notarget_	incorrect_or_nopress	block5_flicker_shape2_white_counterclockwise_notarget_incorrect_or_nopressloc3_
449	2	5	251	2	2	0	0	51	0	0	522200051	block5_	flicker_	shape2_	white_	counterclockwise_	loc51_	notarget_	incorrect_or_nopress	block5_flicker_shape2_white_counterclockwise_notarget_incorrect_or_nopressloc51_
450	2	5	228	1	2	0	0	28	0	0	521200028	block5_	flicker_	shape1_	white_	counterclockwise_	loc28_	notarget_	incorrect_or_nopress	block5_flicker_shape1_white_counterclockwise_notarget_incorrect_or_nopressloc28_
451	2	5	201	1	2	0	0	1	0	0	521200001	block5_	flicker_	shape1_	white_	counterclockwise_	loc1_	notarget_	incorrect_or_nopress	block5_flicker_shape1_white_counterclockwise_notarget_incorrect_or_nopressloc1_
452	2	5	231	2	1	0	0	31	0	0	522100031	block5_	flicker_	shape2_	black_	counterclockwise_	loc31_	notarget_	incorrect_or_nopress	block5_flicker_shape2_black_counterclockwise_notarget_incorrect_or_nopressloc31_
453	2	5	254	2	1	0	0	54	0	0	522100054	block5_	flicker_	shape2_	black_	counterclockwise_	loc54_	notarget_	incorrect_or_nopress	block5_flicker_shape2_black_counterclockwise_notarget_incorrect_or_nopressloc54_
454	2	5	249	1	2	0	0	49	0	0	521200049	block5_	flicker_	shape1_	white_	counterclockwise_	loc49_	notarget_	incorrect_or_nopress	block5_flicker_shape1_white_counterclockwise_notarget_incorrect_or_nopressloc49_
455	2	5	261	2	2	0	0	61	0	0	522200061	block5_	flicker_	shape2_	white_	counterclockwise_	loc61_	notarget_	incorrect_or_nopress	block5_flicker_shape2_white_counterclockwise_notarget_incorrect_or_nopressloc61_
456	2	5	231	1	1	0	0	31	0	0	521100031	block5_	flicker_	shape1_	black_	counterclockwise_	loc31_	notarget_	incorrect_or_nopress	block5_flicker_shape1_black_counterclockwise_notarget_incorrect_or_nopressloc31_
457	2	5	254	1	1	0	0	54	0	0	521100054	block5_	flicker_	shape1_	black_	counterclockwise_	loc54_	notarget_	incorrect_or_nopress	block5_flicker_shape1_black_counterclockwise_notarget_incorrect_or_nopressloc54_
458	2	5	206	2	1	0	0	6	0	0	522100006	block5_	flicker_	shape2_	black_	counterclockwise_	loc6_	notarget_	incorrect_or_nopress	block5_flicker_shape2_black_counterclockwise_notarget_incorrect_or_nopressloc6_
459	2	5	233	2	1	0	0	33	0	0	522100033	block5_	flicker_	shape2_	black_	counterclockwise_	loc33_	notarget_	incorrect_or_nopress	block5_flicker_shape2_black_counterclockwise_notarget_incorrect_or_nopressloc33_
460	2	5	242	2	1	0	0	42	0	0	522100042	block5_	flicker_	shape2_	black_	counterclockwise_	loc42_	notarget_	incorrect_or_nopress	block5_flicker_shape2_black_counterclockwise_notarget_incorrect_or_nopressloc42_
461	2	5	256	1	1	0	0	56	0	0	521100056	block5_	flicker_	shape1_	black_	counterclockwise_	loc56_	notarget_	incorrect_or_nopress	block5_flicker_shape1_black_counterclockwise_notarget_incorrect_or_nopressloc56_
462	2	5	207	2	1	0	0	7	0	0	522100007	block5_	flicker_	shape2_	black_	counterclockwise_	loc7_	notarget_	incorrect_or_nopress	block5_flicker_shape2_black_counterclockwise_notarget_incorrect_or_nopressloc7_
463	2	5	239	1	2	0	0	39	0	0	521200039	block5_	flicker_	shape1_	white_	counterclockwise_	loc39_	notarget_	incorrect_or_nopress	block5_flicker_shape1_white_counterclockwise_notarget_incorrect_or_nopressloc39_
464	2	5	203	1	2	0	0	3	0	0	521200003	block5_	flicker_	shape1_	white_	counterclockwise_	loc3_	notarget_	incorrect_or_nopress	block5_flicker_shape1_white_counterclockwise_notarget_incorrect_or_nopressloc3_
465	2	5	253	2	2	0	0	53	0	0	522200053	block5_	flicker_	shape2_	white_	counterclockwise_	loc53_	notarget_	incorrect_or_nopress	block5_flicker_shape2_white_counterclockwise_notarget_incorrect_or_nopressloc53_
466	2	5	208	2	1	0	0	8	0	0	522100008	block5_	flicker_	shape2_	black_	counterclockwise_	loc8_	notarget_	incorrect_or_nopress	block5_flicker_shape2_black_counterclockwise_notarget_incorrect_or_nopressloc8_
467	2	5	213	1	2	0	0	13	0	0	521200013	block5_	flicker_	shape1_	white_	counterclockwise_	loc13_	notarget_	incorrect_or_nopress	block5_flicker_shape1_white_counterclockwise_notarget_incorrect_or_nopressloc13_
468	2	5	236	1	1	0	0	36	0	0	521100036	block5_	flicker_	shape1_	black_	counterclockwise_	loc36_	notarget_	incorrect_or_nopress	block5_flicker_shape1_black_counterclockwise_notarget_incorrect_or_nopressloc36_
469	2	5	230	2	2	0	0	30	0	0	522200030	block5_	flicker_	shape2_	white_	counterclockwise_	loc30_	notarget_	incorrect_or_nopress	block5_flicker_shape2_white_counterclockwise_notarget_incorrect_or_nopressloc30_
470	2	5	204	2	1	0	0	4	0	0	522100004	block5_	flicker_	shape2_	black_	counterclockwise_	loc4_	notarget_	incorrect_or_nopress	block5_flicker_shape2_black_counterclockwise_notarget_incorrect_or_nopressloc4_
471	2	5	237	2	2	0	0	37	0	0	522200037	block5_	flicker_	shape2_	white_	counterclockwise_	loc37_	notarget_	incorrect_or_nopress	block5_flicker_shape2_white_counterclockwise_notarget_incorrect_or_nopressloc37_
472	2	5	259	2	1	0	0	59	0	0	522100059	block5_	flicker_	shape2_	black_	counterclockwise_	loc59_	notarget_	incorrect_or_nopress	block5_flicker_shape2_black_counterclockwise_notarget_incorrect_or_nopressloc59_
473	2	5	236	2	1	0	0	36	0	0	522100036	block5_	flicker_	shape2_	black_	counterclockwise_	loc36_	notarget_	incorrect_or_nopress	block5_flicker_shape2_black_counterclockwise_notarget_incorrect_or_nopressloc36_
474	2	5	239	2	1	0	0	39	0	0	522100039	block5_	flicker_	shape2_	black_	counterclockwise_	loc39_	notarget_	incorrect_or_nopress	block5_flicker_shape2_black_counterclockwise_notarget_incorrect_or_nopressloc39_
475	2	5	249	2	1	0	0	49	0	0	522100049	block5_	flicker_	shape2_	black_	counterclockwise_	loc49_	notarget_	incorrect_or_nopress	block5_flicker_shape2_black_counterclockwise_notarget_incorrect_or_nopressloc49_
476	2	5	210	1	1	0	0	10	0	0	521100010	block5_	flicker_	shape1_	black_	counterclockwise_	loc10_	notarget_	incorrect_or_nopress	block5_flicker_shape1_black_counterclockwise_notarget_incorrect_or_nopressloc10_
477	2	5	235	2	1	0	0	35	0	0	522100035	block5_	flicker_	shape2_	black_	counterclockwise_	loc35_	notarget_	incorrect_or_nopress	block5_flicker_shape2_black_counterclockwise_notarget_incorrect_or_nopressloc35_
478	2	5	209	2	2	0	0	9	0	0	522200009	block5_	flicker_	shape2_	white_	counterclockwise_	loc9_	notarget_	incorrect_or_nopress	block5_flicker_shape2_white_counterclockwise_notarget_incorrect_or_nopressloc9_
479	2	5	211	1	2	0	0	11	0	0	521200011	block5_	flicker_	shape1_	white_	counterclockwise_	loc11_	notarget_	incorrect_or_nopress	block5_flicker_shape1_white_counterclockwise_notarget_incorrect_or_nopressloc11_
480	2	5	214	1	2	0	0	14	0	0	521200014	block5_	flicker_	shape1_	white_	counterclockwise_	loc14_	notarget_	incorrect_or_nopress	block5_flicker_shape1_white_counterclockwise_notarget_incorrect_or_nopressloc14_
481	2	5	219	1	2	0	0	19	0	0	521200019	block5_	flicker_	shape1_	white_	counterclockwise_	loc19_	notarget_	incorrect_or_nopress	block5_flicker_shape1_white_counterclockwise_notarget_incorrect_or_nopressloc19_
482	2	5	241	1	2	0	0	41	0	0	521200041	block5_	flicker_	shape1_	white_	counterclockwise_	loc41_	notarget_	incorrect_or_nopress	block5_flicker_shape1_white_counterclockwise_notarget_incorrect_or_nopressloc41_
483	2	5	250	1	2	0	0	50	0	0	521200050	block5_	flicker_	shape1_	white_	counterclockwise_	loc50_	notarget_	incorrect_or_nopress	block5_flicker_shape1_white_counterclockwise_notarget_incorrect_or_nopressloc50_
484	2	5	222	2	2	0	0	22	0	0	522200022	block5_	flicker_	shape2_	white_	counterclockwise_	loc22_	notarget_	incorrect_or_nopress	block5_flicker_shape2_white_counterclockwise_notarget_incorrect_or_nopressloc22_
485	2	5	222	1	1	0	0	22	0	0	521100022	block5_	flicker_	shape1_	black_	counterclockwise_	loc22_	notarget_	incorrect_or_nopress	block5_flicker_shape1_black_counterclockwise_notarget_incorrect_or_nopressloc22_
