	trial_type	block_num	trialID	shape	colour	direction	istarget	start_loc	target_position	accuracy_or_button	unique_ID	block_num_mod	trial_type_mod	shape_mod	colour_mod	direction_mod	start_loc_mod	istarget_mod	accuracy_or_button_mod	condition_name
0	1	1	102	1	1	2	0	2	0	0	111120002	block1_	disappearance_	shape1_	black_	counterclockwise_	loc2_	notarget_	incorrect_or_nopress	block1_disappearance_shape1_black_counterclockwise_notarget_incorrect_or_nopressloc2_
1	1	1	112	1	2	2	0	4	0	1	111220104	block1_	disappearance_	shape1_	white_	counterclockwise_	loc4_	notarget_	correct_or_press	block1_disappearance_shape1_white_counterclockwise_notarget_correct_or_pressloc4_
2	1	1	127	2	2	2	1	3	11	1	112221103	block1_	disappearance_	shape2_	white_	counterclockwise_	loc3_	istarget_	correct_or_press	block1_disappearance_shape2_white_counterclockwise_istarget_correct_or_pressloc3_
3	1	1	110	1	2	2	0	2	0	1	111220102	block1_	disappearance_	shape1_	white_	counterclockwise_	loc2_	notarget_	correct_or_press	block1_disappearance_shape1_white_counterclockwise_notarget_correct_or_pressloc2_
4	1	1	131	2	2	1	0	3	0	1	112210103	block1_	disappearance_	shape2_	white_	clockwise_	loc3_	notarget_	correct_or_press	block1_disappearance_shape2_white_clockwise_notarget_correct_or_pressloc3_
5	1	1	130	2	2	1	0	2	0	1	112210102	block1_	disappearance_	shape2_	white_	clockwise_	loc2_	notarget_	correct_or_press	block1_disappearance_shape2_white_clockwise_notarget_correct_or_pressloc2_
6	1	1	102	1	1	2	0	2	0	1	111120102	block1_	disappearance_	shape1_	black_	counterclockwise_	loc2_	notarget_	correct_or_press	block1_disappearance_shape1_black_counterclockwise_notarget_correct_or_pressloc2_
7	1	1	121	2	1	1	0	1	0	1	112110101	block1_	disappearance_	shape2_	black_	clockwise_	loc1_	notarget_	correct_or_press	block1_disappearance_shape2_black_clockwise_notarget_correct_or_pressloc1_
8	1	1	116	1	2	1	0	4	0	1	111210104	block1_	disappearance_	shape1_	white_	clockwise_	loc4_	notarget_	correct_or_press	block1_disappearance_shape1_white_clockwise_notarget_correct_or_pressloc4_
9	1	1	105	1	1	1	0	1	0	1	111110101	block1_	disappearance_	shape1_	black_	clockwise_	loc1_	notarget_	correct_or_press	block1_disappearance_shape1_black_clockwise_notarget_correct_or_pressloc1_
10	1	1	105	1	1	1	0	1	0	1	111110101	block1_	disappearance_	shape1_	black_	clockwise_	loc1_	notarget_	correct_or_press	block1_disappearance_shape1_black_clockwise_notarget_correct_or_pressloc1_
11	1	1	124	2	1	1	0	4	0	1	112110104	block1_	disappearance_	shape2_	black_	clockwise_	loc4_	notarget_	correct_or_press	block1_disappearance_shape2_black_clockwise_notarget_correct_or_pressloc4_
12	1	1	104	1	1	2	0	4	0	1	111120104	block1_	disappearance_	shape1_	black_	counterclockwise_	loc4_	notarget_	correct_or_press	block1_disappearance_shape1_black_counterclockwise_notarget_correct_or_pressloc4_
13	1	1	109	1	2	2	0	1	0	1	111220101	block1_	disappearance_	shape1_	white_	counterclockwise_	loc1_	notarget_	correct_or_press	block1_disappearance_shape1_white_counterclockwise_notarget_correct_or_pressloc1_
14	1	1	129	2	2	1	0	1	0	1	112210101	block1_	disappearance_	shape2_	white_	clockwise_	loc1_	notarget_	correct_or_press	block1_disappearance_shape2_white_clockwise_notarget_correct_or_pressloc1_
15	1	1	119	2	1	2	0	3	0	1	112120103	block1_	disappearance_	shape2_	black_	counterclockwise_	loc3_	notarget_	correct_or_press	block1_disappearance_shape2_black_counterclockwise_notarget_correct_or_pressloc3_
16	1	1	122	2	1	1	0	2	0	1	112110102	block1_	disappearance_	shape2_	black_	clockwise_	loc2_	notarget_	correct_or_press	block1_disappearance_shape2_black_clockwise_notarget_correct_or_pressloc2_
17	1	1	101	1	1	2	1	1	15	1	111121101	block1_	disappearance_	shape1_	black_	counterclockwise_	loc1_	istarget_	correct_or_press	block1_disappearance_shape1_black_counterclockwise_istarget_correct_or_pressloc1_
18	1	1	110	1	2	2	1	2	10	1	111221102	block1_	disappearance_	shape1_	white_	counterclockwise_	loc2_	istarget_	correct_or_press	block1_disappearance_shape1_white_counterclockwise_istarget_correct_or_pressloc2_
19	1	1	103	1	1	2	0	3	0	1	111120103	block1_	disappearance_	shape1_	black_	counterclockwise_	loc3_	notarget_	correct_or_press	block1_disappearance_shape1_black_counterclockwise_notarget_correct_or_pressloc3_
20	1	1	114	1	2	1	0	2	0	1	111210102	block1_	disappearance_	shape1_	white_	clockwise_	loc2_	notarget_	correct_or_press	block1_disappearance_shape1_white_clockwise_notarget_correct_or_pressloc2_
21	1	1	123	2	1	1	1	3	14	1	112111103	block1_	disappearance_	shape2_	black_	clockwise_	loc3_	istarget_	correct_or_press	block1_disappearance_shape2_black_clockwise_istarget_correct_or_pressloc3_
22	1	1	116	1	2	1	0	4	0	1	111210104	block1_	disappearance_	shape1_	white_	clockwise_	loc4_	notarget_	correct_or_press	block1_disappearance_shape1_white_clockwise_notarget_correct_or_pressloc4_
23	1	1	126	2	2	2	0	2	0	1	112220102	block1_	disappearance_	shape2_	white_	counterclockwise_	loc2_	notarget_	correct_or_press	block1_disappearance_shape2_white_counterclockwise_notarget_correct_or_pressloc2_
24	1	1	128	2	2	2	0	4	0	1	112220104	block1_	disappearance_	shape2_	white_	counterclockwise_	loc4_	notarget_	correct_or_press	block1_disappearance_shape2_white_counterclockwise_notarget_correct_or_pressloc4_
25	1	1	111	1	2	2	0	3	0	1	111220103	block1_	disappearance_	shape1_	white_	counterclockwise_	loc3_	notarget_	correct_or_press	block1_disappearance_shape1_white_counterclockwise_notarget_correct_or_pressloc3_
26	1	1	105	1	1	1	0	1	0	1	111110101	block1_	disappearance_	shape1_	black_	clockwise_	loc1_	notarget_	correct_or_press	block1_disappearance_shape1_black_clockwise_notarget_correct_or_pressloc1_
27	1	1	131	2	2	1	0	3	0	1	112210103	block1_	disappearance_	shape2_	white_	clockwise_	loc3_	notarget_	correct_or_press	block1_disappearance_shape2_white_clockwise_notarget_correct_or_pressloc3_
28	1	1	132	2	2	1	0	4	0	1	112210104	block1_	disappearance_	shape2_	white_	clockwise_	loc4_	notarget_	correct_or_press	block1_disappearance_shape2_white_clockwise_notarget_correct_or_pressloc4_
29	1	1	127	2	2	2	0	3	0	1	112220103	block1_	disappearance_	shape2_	white_	counterclockwise_	loc3_	notarget_	correct_or_press	block1_disappearance_shape2_white_counterclockwise_notarget_correct_or_pressloc3_
30	1	1	132	2	2	1	0	4	0	1	112210104	block1_	disappearance_	shape2_	white_	clockwise_	loc4_	notarget_	correct_or_press	block1_disappearance_shape2_white_clockwise_notarget_correct_or_pressloc4_
31	1	1	109	1	2	2	0	1	0	1	111220101	block1_	disappearance_	shape1_	white_	counterclockwise_	loc1_	notarget_	correct_or_press	block1_disappearance_shape1_white_counterclockwise_notarget_correct_or_pressloc1_
32	1	1	120	2	1	2	0	4	0	1	112120104	block1_	disappearance_	shape2_	black_	counterclockwise_	loc4_	notarget_	correct_or_press	block1_disappearance_shape2_black_counterclockwise_notarget_correct_or_pressloc4_
33	1	1	130	2	2	1	0	2	0	1	112210102	block1_	disappearance_	shape2_	white_	clockwise_	loc2_	notarget_	correct_or_press	block1_disappearance_shape2_white_clockwise_notarget_correct_or_pressloc2_
34	1	1	131	2	2	1	0	3	0	1	112210103	block1_	disappearance_	shape2_	white_	clockwise_	loc3_	notarget_	correct_or_press	block1_disappearance_shape2_white_clockwise_notarget_correct_or_pressloc3_
35	1	1	132	2	2	1	1	4	14	1	112211104	block1_	disappearance_	shape2_	white_	clockwise_	loc4_	istarget_	correct_or_press	block1_disappearance_shape2_white_clockwise_istarget_correct_or_pressloc4_
36	1	1	115	1	2	1	0	3	0	1	111210103	block1_	disappearance_	shape1_	white_	clockwise_	loc3_	notarget_	correct_or_press	block1_disappearance_shape1_white_clockwise_notarget_correct_or_pressloc3_
37	1	1	110	1	2	2	0	2	0	1	111220102	block1_	disappearance_	shape1_	white_	counterclockwise_	loc2_	notarget_	correct_or_press	block1_disappearance_shape1_white_counterclockwise_notarget_correct_or_pressloc2_
38	1	1	103	1	1	2	0	3	0	1	111120103	block1_	disappearance_	shape1_	black_	counterclockwise_	loc3_	notarget_	correct_or_press	block1_disappearance_shape1_black_counterclockwise_notarget_correct_or_pressloc3_
39	1	1	115	1	2	1	0	3	0	1	111210103	block1_	disappearance_	shape1_	white_	clockwise_	loc3_	notarget_	correct_or_press	block1_disappearance_shape1_white_clockwise_notarget_correct_or_pressloc3_
40	1	1	125	2	2	2	1	1	14	1	112221101	block1_	disappearance_	shape2_	white_	counterclockwise_	loc1_	istarget_	correct_or_press	block1_disappearance_shape2_white_counterclockwise_istarget_correct_or_pressloc1_
41	1	1	114	1	2	1	0	2	0	1	111210102	block1_	disappearance_	shape1_	white_	clockwise_	loc2_	notarget_	correct_or_press	block1_disappearance_shape1_white_clockwise_notarget_correct_or_pressloc2_
42	1	1	117	2	1	2	0	1	0	1	112120101	block1_	disappearance_	shape2_	black_	counterclockwise_	loc1_	notarget_	correct_or_press	block1_disappearance_shape2_black_counterclockwise_notarget_correct_or_pressloc1_
43	1	1	125	2	2	2	0	1	0	1	112220101	block1_	disappearance_	shape2_	white_	counterclockwise_	loc1_	notarget_	correct_or_press	block1_disappearance_shape2_white_counterclockwise_notarget_correct_or_pressloc1_
44	1	1	104	1	1	2	0	4	0	1	111120104	block1_	disappearance_	shape1_	black_	counterclockwise_	loc4_	notarget_	correct_or_press	block1_disappearance_shape1_black_counterclockwise_notarget_correct_or_pressloc4_
45	1	1	118	2	1	2	1	2	13	1	112121102	block1_	disappearance_	shape2_	black_	counterclockwise_	loc2_	istarget_	correct_or_press	block1_disappearance_shape2_black_counterclockwise_istarget_correct_or_pressloc2_
46	1	1	130	2	2	1	1	2	14	1	112211102	block1_	disappearance_	shape2_	white_	clockwise_	loc2_	istarget_	correct_or_press	block1_disappearance_shape2_white_clockwise_istarget_correct_or_pressloc2_
47	1	1	129	2	2	1	1	1	13	1	112211101	block1_	disappearance_	shape2_	white_	clockwise_	loc1_	istarget_	correct_or_press	block1_disappearance_shape2_white_clockwise_istarget_correct_or_pressloc1_
48	1	1	106	1	1	1	0	2	0	1	111110102	block1_	disappearance_	shape1_	black_	clockwise_	loc2_	notarget_	correct_or_press	block1_disappearance_shape1_black_clockwise_notarget_correct_or_pressloc2_
49	1	1	108	1	1	1	0	4	0	1	111110104	block1_	disappearance_	shape1_	black_	clockwise_	loc4_	notarget_	correct_or_press	block1_disappearance_shape1_black_clockwise_notarget_correct_or_pressloc4_
50	1	1	126	2	2	2	0	2	0	1	112220102	block1_	disappearance_	shape2_	white_	counterclockwise_	loc2_	notarget_	correct_or_press	block1_disappearance_shape2_white_counterclockwise_notarget_correct_or_pressloc2_
51	1	1	119	2	1	2	0	3	0	1	112120103	block1_	disappearance_	shape2_	black_	counterclockwise_	loc3_	notarget_	correct_or_press	block1_disappearance_shape2_black_counterclockwise_notarget_correct_or_pressloc3_
52	1	1	117	2	1	2	0	1	0	1	112120101	block1_	disappearance_	shape2_	black_	counterclockwise_	loc1_	notarget_	correct_or_press	block1_disappearance_shape2_black_counterclockwise_notarget_correct_or_pressloc1_
53	1	1	115	1	2	1	0	3	0	1	111210103	block1_	disappearance_	shape1_	white_	clockwise_	loc3_	notarget_	correct_or_press	block1_disappearance_shape1_white_clockwise_notarget_correct_or_pressloc3_
54	1	1	119	2	1	2	0	3	0	1	112120103	block1_	disappearance_	shape2_	black_	counterclockwise_	loc3_	notarget_	correct_or_press	block1_disappearance_shape2_black_counterclockwise_notarget_correct_or_pressloc3_
55	1	1	122	2	1	1	0	2	0	1	112110102	block1_	disappearance_	shape2_	black_	clockwise_	loc2_	notarget_	correct_or_press	block1_disappearance_shape2_black_clockwise_notarget_correct_or_pressloc2_
56	1	1	118	2	1	2	0	2	0	1	112120102	block1_	disappearance_	shape2_	black_	counterclockwise_	loc2_	notarget_	correct_or_press	block1_disappearance_shape2_black_counterclockwise_notarget_correct_or_pressloc2_
57	1	1	132	2	2	1	0	4	0	1	112210104	block1_	disappearance_	shape2_	white_	clockwise_	loc4_	notarget_	correct_or_press	block1_disappearance_shape2_white_clockwise_notarget_correct_or_pressloc4_
58	1	1	110	1	2	2	0	2	0	1	111220102	block1_	disappearance_	shape1_	white_	counterclockwise_	loc2_	notarget_	correct_or_press	block1_disappearance_shape1_white_counterclockwise_notarget_correct_or_pressloc2_
59	1	1	117	2	1	2	1	1	13	1	112121101	block1_	disappearance_	shape2_	black_	counterclockwise_	loc1_	istarget_	correct_or_press	block1_disappearance_shape2_black_counterclockwise_istarget_correct_or_pressloc1_
60	1	1	114	1	2	1	0	2	0	1	111210102	block1_	disappearance_	shape1_	white_	clockwise_	loc2_	notarget_	correct_or_press	block1_disappearance_shape1_white_clockwise_notarget_correct_or_pressloc2_
61	1	1	106	1	1	1	0	2	0	1	111110102	block1_	disappearance_	shape1_	black_	clockwise_	loc2_	notarget_	correct_or_press	block1_disappearance_shape1_black_clockwise_notarget_correct_or_pressloc2_
62	1	1	129	2	2	1	0	1	0	1	112210101	block1_	disappearance_	shape2_	white_	clockwise_	loc1_	notarget_	correct_or_press	block1_disappearance_shape2_white_clockwise_notarget_correct_or_pressloc1_
63	1	1	106	1	1	1	0	2	0	1	111110102	block1_	disappearance_	shape1_	black_	clockwise_	loc2_	notarget_	correct_or_press	block1_disappearance_shape1_black_clockwise_notarget_correct_or_pressloc2_
64	1	1	123	2	1	1	1	3	20	1	112111103	block1_	disappearance_	shape2_	black_	clockwise_	loc3_	istarget_	correct_or_press	block1_disappearance_shape2_black_clockwise_istarget_correct_or_pressloc3_
65	1	1	118	2	1	2	0	2	0	1	112120102	block1_	disappearance_	shape2_	black_	counterclockwise_	loc2_	notarget_	correct_or_press	block1_disappearance_shape2_black_counterclockwise_notarget_correct_or_pressloc2_
66	1	1	120	2	1	2	0	4	0	1	112120104	block1_	disappearance_	shape2_	black_	counterclockwise_	loc4_	notarget_	correct_or_press	block1_disappearance_shape2_black_counterclockwise_notarget_correct_or_pressloc4_
67	1	1	108	1	1	1	0	4	0	1	111110104	block1_	disappearance_	shape1_	black_	clockwise_	loc4_	notarget_	correct_or_press	block1_disappearance_shape1_black_clockwise_notarget_correct_or_pressloc4_
68	1	1	111	1	2	2	0	3	0	1	111220103	block1_	disappearance_	shape1_	white_	counterclockwise_	loc3_	notarget_	correct_or_press	block1_disappearance_shape1_white_counterclockwise_notarget_correct_or_pressloc3_
69	1	1	128	2	2	2	0	4	0	1	112220104	block1_	disappearance_	shape2_	white_	counterclockwise_	loc4_	notarget_	correct_or_press	block1_disappearance_shape2_white_counterclockwise_notarget_correct_or_pressloc4_
70	1	1	127	2	2	2	0	3	0	1	112220103	block1_	disappearance_	shape2_	white_	counterclockwise_	loc3_	notarget_	correct_or_press	block1_disappearance_shape2_white_counterclockwise_notarget_correct_or_pressloc3_
71	1	1	113	1	2	1	0	1	0	1	111210101	block1_	disappearance_	shape1_	white_	clockwise_	loc1_	notarget_	correct_or_press	block1_disappearance_shape1_white_clockwise_notarget_correct_or_pressloc1_
72	1	1	117	2	1	2	0	1	0	1	112120101	block1_	disappearance_	shape2_	black_	counterclockwise_	loc1_	notarget_	correct_or_press	block1_disappearance_shape2_black_counterclockwise_notarget_correct_or_pressloc1_
73	1	1	127	2	2	2	0	3	0	1	112220103	block1_	disappearance_	shape2_	white_	counterclockwise_	loc3_	notarget_	correct_or_press	block1_disappearance_shape2_white_counterclockwise_notarget_correct_or_pressloc3_
74	1	1	129	2	2	1	0	1	0	1	112210101	block1_	disappearance_	shape2_	white_	clockwise_	loc1_	notarget_	correct_or_press	block1_disappearance_shape2_white_clockwise_notarget_correct_or_pressloc1_
75	1	1	126	2	2	2	0	2	0	1	112220102	block1_	disappearance_	shape2_	white_	counterclockwise_	loc2_	notarget_	correct_or_press	block1_disappearance_shape2_white_counterclockwise_notarget_correct_or_pressloc2_
76	1	1	118	2	1	2	0	2	0	1	112120102	block1_	disappearance_	shape2_	black_	counterclockwise_	loc2_	notarget_	correct_or_press	block1_disappearance_shape2_black_counterclockwise_notarget_correct_or_pressloc2_
77	1	1	101	1	1	2	0	1	0	1	111120101	block1_	disappearance_	shape1_	black_	counterclockwise_	loc1_	notarget_	correct_or_press	block1_disappearance_shape1_black_counterclockwise_notarget_correct_or_pressloc1_
78	1	1	131	2	2	1	1	3	18	1	112211103	block1_	disappearance_	shape2_	white_	clockwise_	loc3_	istarget_	correct_or_press	block1_disappearance_shape2_white_clockwise_istarget_correct_or_pressloc3_
79	1	1	107	1	1	1	0	3	0	1	111110103	block1_	disappearance_	shape1_	black_	clockwise_	loc3_	notarget_	correct_or_press	block1_disappearance_shape1_black_clockwise_notarget_correct_or_pressloc3_
80	1	1	122	2	1	1	0	2	0	1	112110102	block1_	disappearance_	shape2_	black_	clockwise_	loc2_	notarget_	correct_or_press	block1_disappearance_shape2_black_clockwise_notarget_correct_or_pressloc2_
81	1	1	107	1	1	1	0	3	0	1	111110103	block1_	disappearance_	shape1_	black_	clockwise_	loc3_	notarget_	correct_or_press	block1_disappearance_shape1_black_clockwise_notarget_correct_or_pressloc3_
82	1	1	121	2	1	1	0	1	0	1	112110101	block1_	disappearance_	shape2_	black_	clockwise_	loc1_	notarget_	correct_or_press	block1_disappearance_shape2_black_clockwise_notarget_correct_or_pressloc1_
83	1	1	102	1	1	2	0	2	0	1	111120102	block1_	disappearance_	shape1_	black_	counterclockwise_	loc2_	notarget_	correct_or_press	block1_disappearance_shape1_black_counterclockwise_notarget_correct_or_pressloc2_
84	1	1	101	1	1	2	0	1	0	1	111120101	block1_	disappearance_	shape1_	black_	counterclockwise_	loc1_	notarget_	correct_or_press	block1_disappearance_shape1_black_counterclockwise_notarget_correct_or_pressloc1_
85	1	1	121	2	1	1	0	1	0	1	112110101	block1_	disappearance_	shape2_	black_	clockwise_	loc1_	notarget_	correct_or_press	block1_disappearance_shape2_black_clockwise_notarget_correct_or_pressloc1_
86	1	1	123	2	1	1	0	3	0	1	112110103	block1_	disappearance_	shape2_	black_	clockwise_	loc3_	notarget_	correct_or_press	block1_disappearance_shape2_black_clockwise_notarget_correct_or_pressloc3_
87	1	1	103	1	1	2	0	3	0	1	111120103	block1_	disappearance_	shape1_	black_	counterclockwise_	loc3_	notarget_	correct_or_press	block1_disappearance_shape1_black_counterclockwise_notarget_correct_or_pressloc3_
88	1	1	124	2	1	1	0	4	0	1	112110104	block1_	disappearance_	shape2_	black_	clockwise_	loc4_	notarget_	correct_or_press	block1_disappearance_shape2_black_clockwise_notarget_correct_or_pressloc4_
89	1	1	113	1	2	1	0	1	0	1	111210101	block1_	disappearance_	shape1_	white_	clockwise_	loc1_	notarget_	correct_or_press	block1_disappearance_shape1_white_clockwise_notarget_correct_or_pressloc1_
90	1	1	125	2	2	2	0	1	0	1	112220101	block1_	disappearance_	shape2_	white_	counterclockwise_	loc1_	notarget_	correct_or_press	block1_disappearance_shape2_white_counterclockwise_notarget_correct_or_pressloc1_
91	1	1	125	2	2	2	0	1	0	1	112220101	block1_	disappearance_	shape2_	white_	counterclockwise_	loc1_	notarget_	correct_or_press	block1_disappearance_shape2_white_counterclockwise_notarget_correct_or_pressloc1_
92	1	1	111	1	2	2	0	3	0	1	111220103	block1_	disappearance_	shape1_	white_	counterclockwise_	loc3_	notarget_	correct_or_press	block1_disappearance_shape1_white_counterclockwise_notarget_correct_or_pressloc3_
93	1	1	116	1	2	1	0	4	0	1	111210104	block1_	disappearance_	shape1_	white_	clockwise_	loc4_	notarget_	correct_or_press	block1_disappearance_shape1_white_clockwise_notarget_correct_or_pressloc4_
94	1	1	130	2	2	1	0	2	0	1	112210102	block1_	disappearance_	shape2_	white_	clockwise_	loc2_	notarget_	correct_or_press	block1_disappearance_shape2_white_clockwise_notarget_correct_or_pressloc2_
95	1	1	101	1	1	2	0	1	0	1	111120101	block1_	disappearance_	shape1_	black_	counterclockwise_	loc1_	notarget_	correct_or_press	block1_disappearance_shape1_black_counterclockwise_notarget_correct_or_pressloc1_
96	1	1	119	2	1	2	1	3	17	1	112121103	block1_	disappearance_	shape2_	black_	counterclockwise_	loc3_	istarget_	correct_or_press	block1_disappearance_shape2_black_counterclockwise_istarget_correct_or_pressloc3_
97	1	1	109	1	2	2	0	1	0	1	111220101	block1_	disappearance_	shape1_	white_	counterclockwise_	loc1_	notarget_	correct_or_press	block1_disappearance_shape1_white_counterclockwise_notarget_correct_or_pressloc1_
98	1	1	110	1	2	2	1	2	15	1	111221102	block1_	disappearance_	shape1_	white_	counterclockwise_	loc2_	istarget_	correct_or_press	block1_disappearance_shape1_white_counterclockwise_istarget_correct_or_pressloc2_
99	1	1	128	2	2	2	0	4	0	1	112220104	block1_	disappearance_	shape2_	white_	counterclockwise_	loc4_	notarget_	correct_or_press	block1_disappearance_shape2_white_counterclockwise_notarget_correct_or_pressloc4_
100	1	1	113	1	2	1	1	1	14	1	111211101	block1_	disappearance_	shape1_	white_	clockwise_	loc1_	istarget_	correct_or_press	block1_disappearance_shape1_white_clockwise_istarget_correct_or_pressloc1_
101	1	1	113	1	2	1	0	1	0	1	111210101	block1_	disappearance_	shape1_	white_	clockwise_	loc1_	notarget_	correct_or_press	block1_disappearance_shape1_white_clockwise_notarget_correct_or_pressloc1_
102	1	1	104	1	1	2	0	4	0	1	111120104	block1_	disappearance_	shape1_	black_	counterclockwise_	loc4_	notarget_	correct_or_press	block1_disappearance_shape1_black_counterclockwise_notarget_correct_or_pressloc4_
103	1	1	108	1	1	1	0	4	0	1	111110104	block1_	disappearance_	shape1_	black_	clockwise_	loc4_	notarget_	correct_or_press	block1_disappearance_shape1_black_clockwise_notarget_correct_or_pressloc4_
104	1	1	112	1	2	2	0	4	0	1	111220104	block1_	disappearance_	shape1_	white_	counterclockwise_	loc4_	notarget_	correct_or_press	block1_disappearance_shape1_white_counterclockwise_notarget_correct_or_pressloc4_
105	1	1	123	2	1	1	0	3	0	1	112110103	block1_	disappearance_	shape2_	black_	clockwise_	loc3_	notarget_	correct_or_press	block1_disappearance_shape2_black_clockwise_notarget_correct_or_pressloc3_
106	1	1	124	2	1	1	0	4	0	1	112110104	block1_	disappearance_	shape2_	black_	clockwise_	loc4_	notarget_	correct_or_press	block1_disappearance_shape2_black_clockwise_notarget_correct_or_pressloc4_
107	1	1	107	1	1	1	0	3	0	1	111110103	block1_	disappearance_	shape1_	black_	clockwise_	loc3_	notarget_	correct_or_press	block1_disappearance_shape1_black_clockwise_notarget_correct_or_pressloc3_
108	1	1	123	2	1	1	0	3	0	1	112110103	block1_	disappearance_	shape2_	black_	clockwise_	loc3_	notarget_	correct_or_press	block1_disappearance_shape2_black_clockwise_notarget_correct_or_pressloc3_
109	1	1	103	1	1	2	1	3	15	1	111121103	block1_	disappearance_	shape1_	black_	counterclockwise_	loc3_	istarget_	correct_or_press	block1_disappearance_shape1_black_counterclockwise_istarget_correct_or_pressloc3_
110	1	1	115	1	2	1	1	3	12	1	111211103	block1_	disappearance_	shape1_	white_	clockwise_	loc3_	istarget_	correct_or_press	block1_disappearance_shape1_white_clockwise_istarget_correct_or_pressloc3_
111	1	1	112	1	2	2	0	4	0	1	111220104	block1_	disappearance_	shape1_	white_	counterclockwise_	loc4_	notarget_	correct_or_press	block1_disappearance_shape1_white_counterclockwise_notarget_correct_or_pressloc4_
112	1	1	108	1	1	1	1	4	20	1	111111104	block1_	disappearance_	shape1_	black_	clockwise_	loc4_	istarget_	correct_or_press	block1_disappearance_shape1_black_clockwise_istarget_correct_or_pressloc4_
113	1	1	120	2	1	2	0	4	0	1	112120104	block1_	disappearance_	shape2_	black_	counterclockwise_	loc4_	notarget_	correct_or_press	block1_disappearance_shape2_black_counterclockwise_notarget_correct_or_pressloc4_
114	2	1	212	1	1	0	2	12	2	0	121102012	block1_	flicker_	shape1_	black_	counterclockwise_	loc12_	padding_	incorrect_or_nopress	block1_flicker_shape1_black_counterclockwise_padding_incorrect_or_nopressloc12_
115	2	1	229	1	1	0	0	29	0	0	121100029	block1_	flicker_	shape1_	black_	counterclockwise_	loc29_	notarget_	incorrect_or_nopress	block1_flicker_shape1_black_counterclockwise_notarget_incorrect_or_nopressloc29_
116	2	1	206	2	2	0	0	6	0	0	122200006	block1_	flicker_	shape2_	white_	counterclockwise_	loc6_	notarget_	incorrect_or_nopress	block1_flicker_shape2_white_counterclockwise_notarget_incorrect_or_nopressloc6_
117	2	1	211	1	1	0	0	11	0	0	121100011	block1_	flicker_	shape1_	black_	counterclockwise_	loc11_	notarget_	incorrect_or_nopress	block1_flicker_shape1_black_counterclockwise_notarget_incorrect_or_nopressloc11_
118	2	1	257	2	1	0	0	57	0	0	122100057	block1_	flicker_	shape2_	black_	counterclockwise_	loc57_	notarget_	incorrect_or_nopress	block1_flicker_shape2_black_counterclockwise_notarget_incorrect_or_nopressloc57_
119	2	1	236	2	1	0	0	36	0	0	122100036	block1_	flicker_	shape2_	black_	counterclockwise_	loc36_	notarget_	incorrect_or_nopress	block1_flicker_shape2_black_counterclockwise_notarget_incorrect_or_nopressloc36_
120	2	1	259	2	1	0	0	59	0	0	122100059	block1_	flicker_	shape2_	black_	counterclockwise_	loc59_	notarget_	incorrect_or_nopress	block1_flicker_shape2_black_counterclockwise_notarget_incorrect_or_nopressloc59_
121	2	1	229	2	1	0	0	29	0	0	122100029	block1_	flicker_	shape2_	black_	counterclockwise_	loc29_	notarget_	incorrect_or_nopress	block1_flicker_shape2_black_counterclockwise_notarget_incorrect_or_nopressloc29_
122	2	1	246	1	2	0	0	46	0	0	121200046	block1_	flicker_	shape1_	white_	counterclockwise_	loc46_	notarget_	incorrect_or_nopress	block1_flicker_shape1_white_counterclockwise_notarget_incorrect_or_nopressloc46_
123	2	1	219	1	2	0	0	19	0	0	121200019	block1_	flicker_	shape1_	white_	counterclockwise_	loc19_	notarget_	incorrect_or_nopress	block1_flicker_shape1_white_counterclockwise_notarget_incorrect_or_nopressloc19_
124	2	1	220	2	1	0	0	20	0	0	122100020	block1_	flicker_	shape2_	black_	counterclockwise_	loc20_	notarget_	incorrect_or_nopress	block1_flicker_shape2_black_counterclockwise_notarget_incorrect_or_nopressloc20_
125	2	1	224	2	2	0	0	24	0	0	122200024	block1_	flicker_	shape2_	white_	counterclockwise_	loc24_	notarget_	incorrect_or_nopress	block1_flicker_shape2_white_counterclockwise_notarget_incorrect_or_nopressloc24_
126	2	1	237	1	2	0	0	37	0	0	121200037	block1_	flicker_	shape1_	white_	counterclockwise_	loc37_	notarget_	incorrect_or_nopress	block1_flicker_shape1_white_counterclockwise_notarget_incorrect_or_nopressloc37_
127	2	1	238	1	2	0	0	38	0	0	121200038	block1_	flicker_	shape1_	white_	counterclockwise_	loc38_	notarget_	incorrect_or_nopress	block1_flicker_shape1_white_counterclockwise_notarget_incorrect_or_nopressloc38_
128	2	1	202	2	1	0	0	2	0	0	122100002	block1_	flicker_	shape2_	black_	counterclockwise_	loc2_	notarget_	incorrect_or_nopress	block1_flicker_shape2_black_counterclockwise_notarget_incorrect_or_nopressloc2_
129	2	1	253	2	2	0	0	53	0	0	122200053	block1_	flicker_	shape2_	white_	counterclockwise_	loc53_	notarget_	incorrect_or_nopress	block1_flicker_shape2_white_counterclockwise_notarget_incorrect_or_nopressloc53_
130	2	1	226	2	2	0	0	26	0	0	122200026	block1_	flicker_	shape2_	white_	counterclockwise_	loc26_	notarget_	incorrect_or_nopress	block1_flicker_shape2_white_counterclockwise_notarget_incorrect_or_nopressloc26_
131	2	1	215	1	1	0	0	15	0	0	121100015	block1_	flicker_	shape1_	black_	counterclockwise_	loc15_	notarget_	incorrect_or_nopress	block1_flicker_shape1_black_counterclockwise_notarget_incorrect_or_nopressloc15_
132	2	1	212	1	2	0	0	12	0	0	121200012	block1_	flicker_	shape1_	white_	counterclockwise_	loc12_	notarget_	incorrect_or_nopress	block1_flicker_shape1_white_counterclockwise_notarget_incorrect_or_nopressloc12_
133	2	1	261	2	2	0	0	61	0	0	122200061	block1_	flicker_	shape2_	white_	counterclockwise_	loc61_	notarget_	incorrect_or_nopress	block1_flicker_shape2_white_counterclockwise_notarget_incorrect_or_nopressloc61_
134	2	1	226	1	2	0	0	26	0	0	121200026	block1_	flicker_	shape1_	white_	counterclockwise_	loc26_	notarget_	incorrect_or_nopress	block1_flicker_shape1_white_counterclockwise_notarget_incorrect_or_nopressloc26_
135	2	1	250	2	2	0	0	50	0	0	122200050	block1_	flicker_	shape2_	white_	counterclockwise_	loc50_	notarget_	incorrect_or_nopress	block1_flicker_shape2_white_counterclockwise_notarget_incorrect_or_nopressloc50_
136	2	1	207	1	2	0	0	7	0	0	121200007	block1_	flicker_	shape1_	white_	counterclockwise_	loc7_	notarget_	incorrect_or_nopress	block1_flicker_shape1_white_counterclockwise_notarget_incorrect_or_nopressloc7_
137	2	1	205	1	1	0	0	5	0	0	121100005	block1_	flicker_	shape1_	black_	counterclockwise_	loc5_	notarget_	incorrect_or_nopress	block1_flicker_shape1_black_counterclockwise_notarget_incorrect_or_nopressloc5_
138	2	1	262	2	1	0	0	62	0	0	122100062	block1_	flicker_	shape2_	black_	counterclockwise_	loc62_	notarget_	incorrect_or_nopress	block1_flicker_shape2_black_counterclockwise_notarget_incorrect_or_nopressloc62_
139	2	1	221	2	2	0	0	21	0	0	122200021	block1_	flicker_	shape2_	white_	counterclockwise_	loc21_	notarget_	incorrect_or_nopress	block1_flicker_shape2_white_counterclockwise_notarget_incorrect_or_nopressloc21_
140	2	1	231	2	2	0	0	31	0	0	122200031	block1_	flicker_	shape2_	white_	counterclockwise_	loc31_	notarget_	incorrect_or_nopress	block1_flicker_shape2_white_counterclockwise_notarget_incorrect_or_nopressloc31_
141	2	1	212	2	2	0	0	12	0	0	122200012	block1_	flicker_	shape2_	white_	counterclockwise_	loc12_	notarget_	incorrect_or_nopress	block1_flicker_shape2_white_counterclockwise_notarget_incorrect_or_nopressloc12_
142	2	1	251	1	2	0	0	51	0	0	121200051	block1_	flicker_	shape1_	white_	counterclockwise_	loc51_	notarget_	incorrect_or_nopress	block1_flicker_shape1_white_counterclockwise_notarget_incorrect_or_nopressloc51_
143	2	1	222	2	2	0	0	22	0	0	122200022	block1_	flicker_	shape2_	white_	counterclockwise_	loc22_	notarget_	incorrect_or_nopress	block1_flicker_shape2_white_counterclockwise_notarget_incorrect_or_nopressloc22_
144	2	1	233	2	1	0	0	33	0	0	122100033	block1_	flicker_	shape2_	black_	counterclockwise_	loc33_	notarget_	incorrect_or_nopress	block1_flicker_shape2_black_counterclockwise_notarget_incorrect_or_nopressloc33_
145	2	1	257	2	2	0	0	57	0	0	122200057	block1_	flicker_	shape2_	white_	counterclockwise_	loc57_	notarget_	incorrect_or_nopress	block1_flicker_shape2_white_counterclockwise_notarget_incorrect_or_nopressloc57_
146	2	1	216	2	2	0	0	16	0	0	122200016	block1_	flicker_	shape2_	white_	counterclockwise_	loc16_	notarget_	incorrect_or_nopress	block1_flicker_shape2_white_counterclockwise_notarget_incorrect_or_nopressloc16_
147	2	1	244	1	2	0	0	44	0	0	121200044	block1_	flicker_	shape1_	white_	counterclockwise_	loc44_	notarget_	incorrect_or_nopress	block1_flicker_shape1_white_counterclockwise_notarget_incorrect_or_nopressloc44_
148	2	1	213	1	2	0	0	13	0	0	121200013	block1_	flicker_	shape1_	white_	counterclockwise_	loc13_	notarget_	incorrect_or_nopress	block1_flicker_shape1_white_counterclockwise_notarget_incorrect_or_nopressloc13_
149	2	1	248	1	2	0	0	48	0	0	121200048	block1_	flicker_	shape1_	white_	counterclockwise_	loc48_	notarget_	incorrect_or_nopress	block1_flicker_shape1_white_counterclockwise_notarget_incorrect_or_nopressloc48_
150	2	1	249	2	2	0	0	49	0	0	122200049	block1_	flicker_	shape2_	white_	counterclockwise_	loc49_	notarget_	incorrect_or_nopress	block1_flicker_shape2_white_counterclockwise_notarget_incorrect_or_nopressloc49_
151	2	1	256	2	1	0	0	56	0	0	122100056	block1_	flicker_	shape2_	black_	counterclockwise_	loc56_	notarget_	incorrect_or_nopress	block1_flicker_shape2_black_counterclockwise_notarget_incorrect_or_nopressloc56_
152	2	1	259	1	1	0	0	59	0	0	121100059	block1_	flicker_	shape1_	black_	counterclockwise_	loc59_	notarget_	incorrect_or_nopress	block1_flicker_shape1_black_counterclockwise_notarget_incorrect_or_nopressloc59_
153	2	1	245	1	2	0	0	45	0	0	121200045	block1_	flicker_	shape1_	white_	counterclockwise_	loc45_	notarget_	incorrect_or_nopress	block1_flicker_shape1_white_counterclockwise_notarget_incorrect_or_nopressloc45_
154	2	1	224	1	2	0	0	24	0	0	121200024	block1_	flicker_	shape1_	white_	counterclockwise_	loc24_	notarget_	incorrect_or_nopress	block1_flicker_shape1_white_counterclockwise_notarget_incorrect_or_nopressloc24_
155	2	1	217	2	2	0	0	17	0	0	122200017	block1_	flicker_	shape2_	white_	counterclockwise_	loc17_	notarget_	incorrect_or_nopress	block1_flicker_shape2_white_counterclockwise_notarget_incorrect_or_nopressloc17_
156	2	1	236	2	2	0	0	36	0	0	122200036	block1_	flicker_	shape2_	white_	counterclockwise_	loc36_	notarget_	incorrect_or_nopress	block1_flicker_shape2_white_counterclockwise_notarget_incorrect_or_nopressloc36_
157	2	1	229	2	2	0	0	29	0	0	122200029	block1_	flicker_	shape2_	white_	counterclockwise_	loc29_	notarget_	incorrect_or_nopress	block1_flicker_shape2_white_counterclockwise_notarget_incorrect_or_nopressloc29_
158	2	1	204	1	2	0	0	4	0	0	121200004	block1_	flicker_	shape1_	white_	counterclockwise_	loc4_	notarget_	incorrect_or_nopress	block1_flicker_shape1_white_counterclockwise_notarget_incorrect_or_nopressloc4_
159	2	1	240	1	2	0	0	40	0	0	121200040	block1_	flicker_	shape1_	white_	counterclockwise_	loc40_	notarget_	incorrect_or_nopress	block1_flicker_shape1_white_counterclockwise_notarget_incorrect_or_nopressloc40_
160	2	1	241	2	1	0	0	41	0	0	122100041	block1_	flicker_	shape2_	black_	counterclockwise_	loc41_	notarget_	incorrect_or_nopress	block1_flicker_shape2_black_counterclockwise_notarget_incorrect_or_nopressloc41_
161	2	1	217	1	1	0	0	17	0	0	121100017	block1_	flicker_	shape1_	black_	counterclockwise_	loc17_	notarget_	incorrect_or_nopress	block1_flicker_shape1_black_counterclockwise_notarget_incorrect_or_nopressloc17_
162	2	1	251	2	2	0	0	51	0	0	122200051	block1_	flicker_	shape2_	white_	counterclockwise_	loc51_	notarget_	incorrect_or_nopress	block1_flicker_shape2_white_counterclockwise_notarget_incorrect_or_nopressloc51_
163	2	1	223	2	1	0	0	23	0	0	122100023	block1_	flicker_	shape2_	black_	counterclockwise_	loc23_	notarget_	incorrect_or_nopress	block1_flicker_shape2_black_counterclockwise_notarget_incorrect_or_nopressloc23_
164	2	1	206	1	1	0	0	6	0	0	121100006	block1_	flicker_	shape1_	black_	counterclockwise_	loc6_	notarget_	incorrect_or_nopress	block1_flicker_shape1_black_counterclockwise_notarget_incorrect_or_nopressloc6_
165	2	1	225	1	2	0	0	25	0	0	121200025	block1_	flicker_	shape1_	white_	counterclockwise_	loc25_	notarget_	incorrect_or_nopress	block1_flicker_shape1_white_counterclockwise_notarget_incorrect_or_nopressloc25_
166	2	1	232	2	2	0	0	32	0	0	122200032	block1_	flicker_	shape2_	white_	counterclockwise_	loc32_	notarget_	incorrect_or_nopress	block1_flicker_shape2_white_counterclockwise_notarget_incorrect_or_nopressloc32_
167	2	1	228	2	1	0	0	28	0	0	122100028	block1_	flicker_	shape2_	black_	counterclockwise_	loc28_	notarget_	incorrect_or_nopress	block1_flicker_shape2_black_counterclockwise_notarget_incorrect_or_nopressloc28_
168	2	1	226	1	1	0	0	26	0	0	121100026	block1_	flicker_	shape1_	black_	counterclockwise_	loc26_	notarget_	incorrect_or_nopress	block1_flicker_shape1_black_counterclockwise_notarget_incorrect_or_nopressloc26_
169	2	1	201	2	2	0	0	1	0	0	122200001	block1_	flicker_	shape2_	white_	counterclockwise_	loc1_	notarget_	incorrect_or_nopress	block1_flicker_shape2_white_counterclockwise_notarget_incorrect_or_nopressloc1_
170	2	1	224	1	1	0	0	24	0	0	121100024	block1_	flicker_	shape1_	black_	counterclockwise_	loc24_	notarget_	incorrect_or_nopress	block1_flicker_shape1_black_counterclockwise_notarget_incorrect_or_nopressloc24_
171	2	1	204	1	1	0	0	4	0	0	121100004	block1_	flicker_	shape1_	black_	counterclockwise_	loc4_	notarget_	incorrect_or_nopress	block1_flicker_shape1_black_counterclockwise_notarget_incorrect_or_nopressloc4_
172	2	1	203	1	2	0	0	3	0	0	121200003	block1_	flicker_	shape1_	white_	counterclockwise_	loc3_	notarget_	incorrect_or_nopress	block1_flicker_shape1_white_counterclockwise_notarget_incorrect_or_nopressloc3_
173	2	1	252	2	2	0	0	52	0	0	122200052	block1_	flicker_	shape2_	white_	counterclockwise_	loc52_	notarget_	incorrect_or_nopress	block1_flicker_shape2_white_counterclockwise_notarget_incorrect_or_nopressloc52_
174	2	1	211	2	2	0	0	11	0	0	122200011	block1_	flicker_	shape2_	white_	counterclockwise_	loc11_	notarget_	incorrect_or_nopress	block1_flicker_shape2_white_counterclockwise_notarget_incorrect_or_nopressloc11_
175	2	1	207	2	2	0	0	7	0	0	122200007	block1_	flicker_	shape2_	white_	counterclockwise_	loc7_	notarget_	incorrect_or_nopress	block1_flicker_shape2_white_counterclockwise_notarget_incorrect_or_nopressloc7_
176	2	1	210	2	1	0	0	10	0	0	122100010	block1_	flicker_	shape2_	black_	counterclockwise_	loc10_	notarget_	incorrect_or_nopress	block1_flicker_shape2_black_counterclockwise_notarget_incorrect_or_nopressloc10_
177	2	1	207	1	1	0	0	7	0	0	121100007	block1_	flicker_	shape1_	black_	counterclockwise_	loc7_	notarget_	incorrect_or_nopress	block1_flicker_shape1_black_counterclockwise_notarget_incorrect_or_nopressloc7_
178	2	1	254	1	2	0	0	54	0	0	121200054	block1_	flicker_	shape1_	white_	counterclockwise_	loc54_	notarget_	incorrect_or_nopress	block1_flicker_shape1_white_counterclockwise_notarget_incorrect_or_nopressloc54_
179	2	1	215	2	1	0	0	15	0	0	122100015	block1_	flicker_	shape2_	black_	counterclockwise_	loc15_	notarget_	incorrect_or_nopress	block1_flicker_shape2_black_counterclockwise_notarget_incorrect_or_nopressloc15_
180	2	1	216	1	1	0	0	16	0	0	121100016	block1_	flicker_	shape1_	black_	counterclockwise_	loc16_	notarget_	incorrect_or_nopress	block1_flicker_shape1_black_counterclockwise_notarget_incorrect_or_nopressloc16_
181	2	1	250	1	2	0	0	50	0	0	121200050	block1_	flicker_	shape1_	white_	counterclockwise_	loc50_	notarget_	incorrect_or_nopress	block1_flicker_shape1_white_counterclockwise_notarget_incorrect_or_nopressloc50_
182	2	1	237	2	1	0	0	37	0	0	122100037	block1_	flicker_	shape2_	black_	counterclockwise_	loc37_	notarget_	incorrect_or_nopress	block1_flicker_shape2_black_counterclockwise_notarget_incorrect_or_nopressloc37_
183	2	1	257	1	2	0	0	57	0	0	121200057	block1_	flicker_	shape1_	white_	counterclockwise_	loc57_	notarget_	incorrect_or_nopress	block1_flicker_shape1_white_counterclockwise_notarget_incorrect_or_nopressloc57_
184	2	1	209	1	2	0	0	9	0	0	121200009	block1_	flicker_	shape1_	white_	counterclockwise_	loc9_	notarget_	incorrect_or_nopress	block1_flicker_shape1_white_counterclockwise_notarget_incorrect_or_nopressloc9_
185	2	1	220	1	1	0	0	20	0	0	121100020	block1_	flicker_	shape1_	black_	counterclockwise_	loc20_	notarget_	incorrect_or_nopress	block1_flicker_shape1_black_counterclockwise_notarget_incorrect_or_nopressloc20_
186	2	1	208	2	1	0	0	8	0	0	122100008	block1_	flicker_	shape2_	black_	counterclockwise_	loc8_	notarget_	incorrect_or_nopress	block1_flicker_shape2_black_counterclockwise_notarget_incorrect_or_nopressloc8_
187	2	1	263	2	1	0	0	63	0	0	122100063	block1_	flicker_	shape2_	black_	counterclockwise_	loc63_	notarget_	incorrect_or_nopress	block1_flicker_shape2_black_counterclockwise_notarget_incorrect_or_nopressloc63_
188	2	1	201	1	1	0	0	1	0	0	121100001	block1_	flicker_	shape1_	black_	counterclockwise_	loc1_	notarget_	incorrect_or_nopress	block1_flicker_shape1_black_counterclockwise_notarget_incorrect_or_nopressloc1_
189	2	1	257	1	1	0	0	57	0	0	121100057	block1_	flicker_	shape1_	black_	counterclockwise_	loc57_	notarget_	incorrect_or_nopress	block1_flicker_shape1_black_counterclockwise_notarget_incorrect_or_nopressloc57_
190	2	1	227	2	1	0	0	27	0	0	122100027	block1_	flicker_	shape2_	black_	counterclockwise_	loc27_	notarget_	incorrect_or_nopress	block1_flicker_shape2_black_counterclockwise_notarget_incorrect_or_nopressloc27_
191	2	1	247	1	2	0	0	47	0	0	121200047	block1_	flicker_	shape1_	white_	counterclockwise_	loc47_	notarget_	incorrect_or_nopress	block1_flicker_shape1_white_counterclockwise_notarget_incorrect_or_nopressloc47_
192	2	1	260	1	1	0	0	60	0	0	121100060	block1_	flicker_	shape1_	black_	counterclockwise_	loc60_	notarget_	incorrect_or_nopress	block1_flicker_shape1_black_counterclockwise_notarget_incorrect_or_nopressloc60_
193	2	1	214	1	1	0	2	14	2	0	121102014	block1_	flicker_	shape1_	black_	counterclockwise_	loc14_	padding_	incorrect_or_nopress	block1_flicker_shape1_black_counterclockwise_padding_incorrect_or_nopressloc14_
194	2	1	224	2	1	0	2	24	2	0	122102024	block1_	flicker_	shape2_	black_	counterclockwise_	loc24_	padding_	incorrect_or_nopress	block1_flicker_shape2_black_counterclockwise_padding_incorrect_or_nopressloc24_
195	2	1	261	1	2	0	2	61	2	0	121202061	block1_	flicker_	shape1_	white_	counterclockwise_	loc61_	padding_	incorrect_or_nopress	block1_flicker_shape1_white_counterclockwise_padding_incorrect_or_nopressloc61_
196	2	1	206	2	1	0	2	6	2	0	122102006	block1_	flicker_	shape2_	black_	counterclockwise_	loc6_	padding_	incorrect_or_nopress	block1_flicker_shape2_black_counterclockwise_padding_incorrect_or_nopressloc6_
197	2	1	264	2	1	0	2	64	2	0	122102064	block1_	flicker_	shape2_	black_	counterclockwise_	loc64_	padding_	incorrect_or_nopress	block1_flicker_shape2_black_counterclockwise_padding_incorrect_or_nopressloc64_
198	2	1	245	2	2	0	2	45	2	0	122202045	block1_	flicker_	shape2_	white_	counterclockwise_	loc45_	padding_	incorrect_or_nopress	block1_flicker_shape2_white_counterclockwise_padding_incorrect_or_nopressloc45_
199	2	1	254	2	1	0	2	54	2	0	122102054	block1_	flicker_	shape2_	black_	counterclockwise_	loc54_	padding_	incorrect_or_nopress	block1_flicker_shape2_black_counterclockwise_padding_incorrect_or_nopressloc54_
200	2	1	213	1	1	0	1	13	1	0	121101013	block1_	flicker_	shape1_	black_	counterclockwise_	loc13_	istarget_	incorrect_or_nopress	block1_flicker_shape1_black_counterclockwise_istarget_incorrect_or_nopressloc13_
201	2	1	233	2	2	0	2	33	2	0	122202033	block1_	flicker_	shape2_	white_	counterclockwise_	loc33_	padding_	incorrect_or_nopress	block1_flicker_shape2_white_counterclockwise_padding_incorrect_or_nopressloc33_
202	2	1	215	2	2	0	2	15	2	0	122202015	block1_	flicker_	shape2_	white_	counterclockwise_	loc15_	padding_	incorrect_or_nopress	block1_flicker_shape2_white_counterclockwise_padding_incorrect_or_nopressloc15_
203	2	1	258	1	1	0	2	58	2	1	121102158	block1_	flicker_	shape1_	black_	counterclockwise_	loc58_	padding_	correct_or_press	block1_flicker_shape1_black_counterclockwise_padding_correct_or_pressloc58_
204	2	1	207	1	1	0	2	7	2	1	121102107	block1_	flicker_	shape1_	black_	counterclockwise_	loc7_	padding_	correct_or_press	block1_flicker_shape1_black_counterclockwise_padding_correct_or_pressloc7_
205	2	1	228	1	2	0	2	28	2	1	121202128	block1_	flicker_	shape1_	white_	counterclockwise_	loc28_	padding_	correct_or_press	block1_flicker_shape1_white_counterclockwise_padding_correct_or_pressloc28_
206	2	1	237	1	2	0	2	37	2	0	121202037	block1_	flicker_	shape1_	white_	counterclockwise_	loc37_	padding_	incorrect_or_nopress	block1_flicker_shape1_white_counterclockwise_padding_incorrect_or_nopressloc37_
207	2	1	249	2	2	0	2	49	2	0	122202049	block1_	flicker_	shape2_	white_	counterclockwise_	loc49_	padding_	incorrect_or_nopress	block1_flicker_shape2_white_counterclockwise_padding_incorrect_or_nopressloc49_
208	2	1	253	1	2	0	2	53	2	0	121202053	block1_	flicker_	shape1_	white_	counterclockwise_	loc53_	padding_	incorrect_or_nopress	block1_flicker_shape1_white_counterclockwise_padding_incorrect_or_nopressloc53_
209	2	1	227	1	1	0	0	27	0	0	121100027	block1_	flicker_	shape1_	black_	counterclockwise_	loc27_	notarget_	incorrect_or_nopress	block1_flicker_shape1_black_counterclockwise_notarget_incorrect_or_nopressloc27_
210	2	1	234	1	1	0	0	34	0	0	121100034	block1_	flicker_	shape1_	black_	counterclockwise_	loc34_	notarget_	incorrect_or_nopress	block1_flicker_shape1_black_counterclockwise_notarget_incorrect_or_nopressloc34_
211	2	1	246	2	1	0	0	46	0	0	122100046	block1_	flicker_	shape2_	black_	counterclockwise_	loc46_	notarget_	incorrect_or_nopress	block1_flicker_shape2_black_counterclockwise_notarget_incorrect_or_nopressloc46_
212	2	1	233	1	1	0	0	33	0	0	121100033	block1_	flicker_	shape1_	black_	counterclockwise_	loc33_	notarget_	incorrect_or_nopress	block1_flicker_shape1_black_counterclockwise_notarget_incorrect_or_nopressloc33_
213	2	1	249	2	1	0	0	49	0	0	122100049	block1_	flicker_	shape2_	black_	counterclockwise_	loc49_	notarget_	incorrect_or_nopress	block1_flicker_shape2_black_counterclockwise_notarget_incorrect_or_nopressloc49_
214	2	1	218	1	2	0	0	18	0	0	121200018	block1_	flicker_	shape1_	white_	counterclockwise_	loc18_	notarget_	incorrect_or_nopress	block1_flicker_shape1_white_counterclockwise_notarget_incorrect_or_nopressloc18_
215	2	1	237	2	2	0	0	37	0	0	122200037	block1_	flicker_	shape2_	white_	counterclockwise_	loc37_	notarget_	incorrect_or_nopress	block1_flicker_shape2_white_counterclockwise_notarget_incorrect_or_nopressloc37_
216	2	1	210	1	2	0	0	10	0	0	121200010	block1_	flicker_	shape1_	white_	counterclockwise_	loc10_	notarget_	incorrect_or_nopress	block1_flicker_shape1_white_counterclockwise_notarget_incorrect_or_nopressloc10_
217	2	1	224	2	1	0	0	24	0	0	122100024	block1_	flicker_	shape2_	black_	counterclockwise_	loc24_	notarget_	incorrect_or_nopress	block1_flicker_shape2_black_counterclockwise_notarget_incorrect_or_nopressloc24_
218	2	1	259	2	2	0	0	59	0	0	122200059	block1_	flicker_	shape2_	white_	counterclockwise_	loc59_	notarget_	incorrect_or_nopress	block1_flicker_shape2_white_counterclockwise_notarget_incorrect_or_nopressloc59_
219	2	1	215	2	2	0	0	15	0	0	122200015	block1_	flicker_	shape2_	white_	counterclockwise_	loc15_	notarget_	incorrect_or_nopress	block1_flicker_shape2_white_counterclockwise_notarget_incorrect_or_nopressloc15_
220	2	1	252	1	1	0	0	52	0	0	121100052	block1_	flicker_	shape1_	black_	counterclockwise_	loc52_	notarget_	incorrect_or_nopress	block1_flicker_shape1_black_counterclockwise_notarget_incorrect_or_nopressloc52_
221	2	1	263	2	2	0	0	63	0	0	122200063	block1_	flicker_	shape2_	white_	counterclockwise_	loc63_	notarget_	incorrect_or_nopress	block1_flicker_shape2_white_counterclockwise_notarget_incorrect_or_nopressloc63_
222	2	1	227	1	2	0	0	27	0	0	121200027	block1_	flicker_	shape1_	white_	counterclockwise_	loc27_	notarget_	incorrect_or_nopress	block1_flicker_shape1_white_counterclockwise_notarget_incorrect_or_nopressloc27_
223	2	1	218	2	2	0	0	18	0	0	122200018	block1_	flicker_	shape2_	white_	counterclockwise_	loc18_	notarget_	incorrect_or_nopress	block1_flicker_shape2_white_counterclockwise_notarget_incorrect_or_nopressloc18_
224	2	1	256	1	1	0	0	56	0	0	121100056	block1_	flicker_	shape1_	black_	counterclockwise_	loc56_	notarget_	incorrect_or_nopress	block1_flicker_shape1_black_counterclockwise_notarget_incorrect_or_nopressloc56_
225	2	1	263	1	2	0	0	63	0	0	121200063	block1_	flicker_	shape1_	white_	counterclockwise_	loc63_	notarget_	incorrect_or_nopress	block1_flicker_shape1_white_counterclockwise_notarget_incorrect_or_nopressloc63_
226	2	1	253	1	2	0	0	53	0	0	121200053	block1_	flicker_	shape1_	white_	counterclockwise_	loc53_	notarget_	incorrect_or_nopress	block1_flicker_shape1_white_counterclockwise_notarget_incorrect_or_nopressloc53_
227	2	1	256	1	2	0	0	56	0	0	121200056	block1_	flicker_	shape1_	white_	counterclockwise_	loc56_	notarget_	incorrect_or_nopress	block1_flicker_shape1_white_counterclockwise_notarget_incorrect_or_nopressloc56_
228	2	1	208	2	2	0	0	8	0	0	122200008	block1_	flicker_	shape2_	white_	counterclockwise_	loc8_	notarget_	incorrect_or_nopress	block1_flicker_shape2_white_counterclockwise_notarget_incorrect_or_nopressloc8_
229	2	1	217	1	2	0	0	17	0	0	121200017	block1_	flicker_	shape1_	white_	counterclockwise_	loc17_	notarget_	incorrect_or_nopress	block1_flicker_shape1_white_counterclockwise_notarget_incorrect_or_nopressloc17_
230	2	1	237	1	1	0	0	37	0	0	121100037	block1_	flicker_	shape1_	black_	counterclockwise_	loc37_	notarget_	incorrect_or_nopress	block1_flicker_shape1_black_counterclockwise_notarget_incorrect_or_nopressloc37_
231	2	1	245	2	2	0	0	45	0	0	122200045	block1_	flicker_	shape2_	white_	counterclockwise_	loc45_	notarget_	incorrect_or_nopress	block1_flicker_shape2_white_counterclockwise_notarget_incorrect_or_nopressloc45_
232	2	1	242	2	1	0	0	42	0	0	122100042	block1_	flicker_	shape2_	black_	counterclockwise_	loc42_	notarget_	incorrect_or_nopress	block1_flicker_shape2_black_counterclockwise_notarget_incorrect_or_nopressloc42_
233	2	1	236	1	2	0	0	36	0	0	121200036	block1_	flicker_	shape1_	white_	counterclockwise_	loc36_	notarget_	incorrect_or_nopress	block1_flicker_shape1_white_counterclockwise_notarget_incorrect_or_nopressloc36_
234	2	1	261	1	1	0	0	61	0	0	121100061	block1_	flicker_	shape1_	black_	counterclockwise_	loc61_	notarget_	incorrect_or_nopress	block1_flicker_shape1_black_counterclockwise_notarget_incorrect_or_nopressloc61_
235	2	1	223	1	2	0	0	23	0	0	121200023	block1_	flicker_	shape1_	white_	counterclockwise_	loc23_	notarget_	incorrect_or_nopress	block1_flicker_shape1_white_counterclockwise_notarget_incorrect_or_nopressloc23_
236	2	1	242	1	1	0	0	42	0	0	121100042	block1_	flicker_	shape1_	black_	counterclockwise_	loc42_	notarget_	incorrect_or_nopress	block1_flicker_shape1_black_counterclockwise_notarget_incorrect_or_nopressloc42_
237	2	1	252	1	2	0	0	52	0	0	121200052	block1_	flicker_	shape1_	white_	counterclockwise_	loc52_	notarget_	incorrect_or_nopress	block1_flicker_shape1_white_counterclockwise_notarget_incorrect_or_nopressloc52_
238	2	1	222	2	1	0	0	22	0	0	122100022	block1_	flicker_	shape2_	black_	counterclockwise_	loc22_	notarget_	incorrect_or_nopress	block1_flicker_shape2_black_counterclockwise_notarget_incorrect_or_nopressloc22_
239	2	1	258	1	1	0	0	58	0	0	121100058	block1_	flicker_	shape1_	black_	counterclockwise_	loc58_	notarget_	incorrect_or_nopress	block1_flicker_shape1_black_counterclockwise_notarget_incorrect_or_nopressloc58_
240	2	1	243	1	1	0	0	43	0	0	121100043	block1_	flicker_	shape1_	black_	counterclockwise_	loc43_	notarget_	incorrect_or_nopress	block1_flicker_shape1_black_counterclockwise_notarget_incorrect_or_nopressloc43_
241	2	1	234	2	2	0	0	34	0	0	122200034	block1_	flicker_	shape2_	white_	counterclockwise_	loc34_	notarget_	incorrect_or_nopress	block1_flicker_shape2_white_counterclockwise_notarget_incorrect_or_nopressloc34_
242	2	1	203	1	1	0	0	3	0	0	121100003	block1_	flicker_	shape1_	black_	counterclockwise_	loc3_	notarget_	incorrect_or_nopress	block1_flicker_shape1_black_counterclockwise_notarget_incorrect_or_nopressloc3_
243	2	1	216	1	2	0	0	16	0	0	121200016	block1_	flicker_	shape1_	white_	counterclockwise_	loc16_	notarget_	incorrect_or_nopress	block1_flicker_shape1_white_counterclockwise_notarget_incorrect_or_nopressloc16_
244	2	1	233	2	2	0	0	33	0	0	122200033	block1_	flicker_	shape2_	white_	counterclockwise_	loc33_	notarget_	incorrect_or_nopress	block1_flicker_shape2_white_counterclockwise_notarget_incorrect_or_nopressloc33_
245	2	1	264	2	2	0	0	64	0	0	122200064	block1_	flicker_	shape2_	white_	counterclockwise_	loc64_	notarget_	incorrect_or_nopress	block1_flicker_shape2_white_counterclockwise_notarget_incorrect_or_nopressloc64_
246	2	1	251	1	1	0	0	51	0	0	121100051	block1_	flicker_	shape1_	black_	counterclockwise_	loc51_	notarget_	incorrect_or_nopress	block1_flicker_shape1_black_counterclockwise_notarget_incorrect_or_nopressloc51_
247	2	1	235	1	1	0	0	35	0	0	121100035	block1_	flicker_	shape1_	black_	counterclockwise_	loc35_	notarget_	incorrect_or_nopress	block1_flicker_shape1_black_counterclockwise_notarget_incorrect_or_nopressloc35_
248	2	1	228	2	2	0	0	28	0	0	122200028	block1_	flicker_	shape2_	white_	counterclockwise_	loc28_	notarget_	incorrect_or_nopress	block1_flicker_shape2_white_counterclockwise_notarget_incorrect_or_nopressloc28_
249	2	1	244	2	2	0	0	44	0	0	122200044	block1_	flicker_	shape2_	white_	counterclockwise_	loc44_	notarget_	incorrect_or_nopress	block1_flicker_shape2_white_counterclockwise_notarget_incorrect_or_nopressloc44_
250	2	1	251	2	1	0	0	51	0	0	122100051	block1_	flicker_	shape2_	black_	counterclockwise_	loc51_	notarget_	incorrect_or_nopress	block1_flicker_shape2_black_counterclockwise_notarget_incorrect_or_nopressloc51_
251	2	1	214	2	2	0	0	14	0	0	122200014	block1_	flicker_	shape2_	white_	counterclockwise_	loc14_	notarget_	incorrect_or_nopress	block1_flicker_shape2_white_counterclockwise_notarget_incorrect_or_nopressloc14_
252	2	1	261	1	2	0	0	61	0	0	121200061	block1_	flicker_	shape1_	white_	counterclockwise_	loc61_	notarget_	incorrect_or_nopress	block1_flicker_shape1_white_counterclockwise_notarget_incorrect_or_nopressloc61_
253	2	1	238	2	1	0	0	38	0	0	122100038	block1_	flicker_	shape2_	black_	counterclockwise_	loc38_	notarget_	incorrect_or_nopress	block1_flicker_shape2_black_counterclockwise_notarget_incorrect_or_nopressloc38_
254	2	1	207	2	1	0	0	7	0	0	122100007	block1_	flicker_	shape2_	black_	counterclockwise_	loc7_	notarget_	incorrect_or_nopress	block1_flicker_shape2_black_counterclockwise_notarget_incorrect_or_nopressloc7_
255	2	1	231	2	1	0	0	31	0	0	122100031	block1_	flicker_	shape2_	black_	counterclockwise_	loc31_	notarget_	incorrect_or_nopress	block1_flicker_shape2_black_counterclockwise_notarget_incorrect_or_nopressloc31_
256	2	1	239	1	2	0	0	39	0	0	121200039	block1_	flicker_	shape1_	white_	counterclockwise_	loc39_	notarget_	incorrect_or_nopress	block1_flicker_shape1_white_counterclockwise_notarget_incorrect_or_nopressloc39_
257	2	1	216	2	1	0	0	16	0	0	122100016	block1_	flicker_	shape2_	black_	counterclockwise_	loc16_	notarget_	incorrect_or_nopress	block1_flicker_shape2_black_counterclockwise_notarget_incorrect_or_nopressloc16_
258	2	1	240	2	2	0	0	40	0	0	122200040	block1_	flicker_	shape2_	white_	counterclockwise_	loc40_	notarget_	incorrect_or_nopress	block1_flicker_shape2_white_counterclockwise_notarget_incorrect_or_nopressloc40_
259	2	1	214	1	2	0	0	14	0	0	121200014	block1_	flicker_	shape1_	white_	counterclockwise_	loc14_	notarget_	incorrect_or_nopress	block1_flicker_shape1_white_counterclockwise_notarget_incorrect_or_nopressloc14_
260	2	1	225	1	1	0	0	25	0	0	121100025	block1_	flicker_	shape1_	black_	counterclockwise_	loc25_	notarget_	incorrect_or_nopress	block1_flicker_shape1_black_counterclockwise_notarget_incorrect_or_nopressloc25_
261	2	1	243	2	1	0	0	43	0	0	122100043	block1_	flicker_	shape2_	black_	counterclockwise_	loc43_	notarget_	incorrect_or_nopress	block1_flicker_shape2_black_counterclockwise_notarget_incorrect_or_nopressloc43_
262	2	1	223	1	1	0	0	23	0	0	121100023	block1_	flicker_	shape1_	black_	counterclockwise_	loc23_	notarget_	incorrect_or_nopress	block1_flicker_shape1_black_counterclockwise_notarget_incorrect_or_nopressloc23_
263	2	1	226	2	1	0	0	26	0	0	122100026	block1_	flicker_	shape2_	black_	counterclockwise_	loc26_	notarget_	incorrect_or_nopress	block1_flicker_shape2_black_counterclockwise_notarget_incorrect_or_nopressloc26_
264	2	1	221	1	1	0	0	21	0	0	121100021	block1_	flicker_	shape1_	black_	counterclockwise_	loc21_	notarget_	incorrect_or_nopress	block1_flicker_shape1_black_counterclockwise_notarget_incorrect_or_nopressloc21_
265	2	1	246	1	1	0	0	46	0	0	121100046	block1_	flicker_	shape1_	black_	counterclockwise_	loc46_	notarget_	incorrect_or_nopress	block1_flicker_shape1_black_counterclockwise_notarget_incorrect_or_nopressloc46_
266	2	1	262	1	2	0	0	62	0	0	121200062	block1_	flicker_	shape1_	white_	counterclockwise_	loc62_	notarget_	incorrect_or_nopress	block1_flicker_shape1_white_counterclockwise_notarget_incorrect_or_nopressloc62_
267	2	1	211	1	2	0	0	11	0	0	121200011	block1_	flicker_	shape1_	white_	counterclockwise_	loc11_	notarget_	incorrect_or_nopress	block1_flicker_shape1_white_counterclockwise_notarget_incorrect_or_nopressloc11_
268	2	1	247	2	1	0	0	47	0	0	122100047	block1_	flicker_	shape2_	black_	counterclockwise_	loc47_	notarget_	incorrect_or_nopress	block1_flicker_shape2_black_counterclockwise_notarget_incorrect_or_nopressloc47_
269	2	1	218	1	1	0	0	18	0	0	121100018	block1_	flicker_	shape1_	black_	counterclockwise_	loc18_	notarget_	incorrect_or_nopress	block1_flicker_shape1_black_counterclockwise_notarget_incorrect_or_nopressloc18_
270	2	1	250	1	1	0	0	50	0	0	121100050	block1_	flicker_	shape1_	black_	counterclockwise_	loc50_	notarget_	incorrect_or_nopress	block1_flicker_shape1_black_counterclockwise_notarget_incorrect_or_nopressloc50_
271	2	1	256	2	2	0	0	56	0	0	122200056	block1_	flicker_	shape2_	white_	counterclockwise_	loc56_	notarget_	incorrect_or_nopress	block1_flicker_shape2_white_counterclockwise_notarget_incorrect_or_nopressloc56_
272	2	1	236	1	1	0	0	36	0	0	121100036	block1_	flicker_	shape1_	black_	counterclockwise_	loc36_	notarget_	incorrect_or_nopress	block1_flicker_shape1_black_counterclockwise_notarget_incorrect_or_nopressloc36_
273	2	1	225	2	1	0	0	25	0	0	122100025	block1_	flicker_	shape2_	black_	counterclockwise_	loc25_	notarget_	incorrect_or_nopress	block1_flicker_shape2_black_counterclockwise_notarget_incorrect_or_nopressloc25_
274	2	1	202	1	2	0	0	2	0	0	121200002	block1_	flicker_	shape1_	white_	counterclockwise_	loc2_	notarget_	incorrect_or_nopress	block1_flicker_shape1_white_counterclockwise_notarget_incorrect_or_nopressloc2_
275	2	1	225	2	2	0	0	25	0	0	122200025	block1_	flicker_	shape2_	white_	counterclockwise_	loc25_	notarget_	incorrect_or_nopress	block1_flicker_shape2_white_counterclockwise_notarget_incorrect_or_nopressloc25_
276	2	1	264	2	1	0	0	64	0	0	122100064	block1_	flicker_	shape2_	black_	counterclockwise_	loc64_	notarget_	incorrect_or_nopress	block1_flicker_shape2_black_counterclockwise_notarget_incorrect_or_nopressloc64_
277	2	1	260	2	2	0	0	60	0	0	122200060	block1_	flicker_	shape2_	white_	counterclockwise_	loc60_	notarget_	incorrect_or_nopress	block1_flicker_shape2_white_counterclockwise_notarget_incorrect_or_nopressloc60_
278	2	1	230	1	1	0	0	30	0	0	121100030	block1_	flicker_	shape1_	black_	counterclockwise_	loc30_	notarget_	incorrect_or_nopress	block1_flicker_shape1_black_counterclockwise_notarget_incorrect_or_nopressloc30_
279	2	1	244	1	1	0	0	44	0	0	121100044	block1_	flicker_	shape1_	black_	counterclockwise_	loc44_	notarget_	incorrect_or_nopress	block1_flicker_shape1_black_counterclockwise_notarget_incorrect_or_nopressloc44_
280	2	1	240	2	1	0	0	40	0	0	122100040	block1_	flicker_	shape2_	black_	counterclockwise_	loc40_	notarget_	incorrect_or_nopress	block1_flicker_shape2_black_counterclockwise_notarget_incorrect_or_nopressloc40_
281	2	1	258	1	2	0	0	58	0	0	121200058	block1_	flicker_	shape1_	white_	counterclockwise_	loc58_	notarget_	incorrect_or_nopress	block1_flicker_shape1_white_counterclockwise_notarget_incorrect_or_nopressloc58_
282	2	1	258	2	1	0	0	58	0	0	122100058	block1_	flicker_	shape2_	black_	counterclockwise_	loc58_	notarget_	incorrect_or_nopress	block1_flicker_shape2_black_counterclockwise_notarget_incorrect_or_nopressloc58_
283	2	1	252	2	1	0	0	52	0	0	122100052	block1_	flicker_	shape2_	black_	counterclockwise_	loc52_	notarget_	incorrect_or_nopress	block1_flicker_shape2_black_counterclockwise_notarget_incorrect_or_nopressloc52_
284	2	1	209	2	1	0	0	9	0	0	122100009	block1_	flicker_	shape2_	black_	counterclockwise_	loc9_	notarget_	incorrect_or_nopress	block1_flicker_shape2_black_counterclockwise_notarget_incorrect_or_nopressloc9_
285	2	1	204	2	2	0	0	4	0	0	122200004	block1_	flicker_	shape2_	white_	counterclockwise_	loc4_	notarget_	incorrect_or_nopress	block1_flicker_shape2_white_counterclockwise_notarget_incorrect_or_nopressloc4_
286	2	1	234	1	2	0	0	34	0	0	121200034	block1_	flicker_	shape1_	white_	counterclockwise_	loc34_	notarget_	incorrect_or_nopress	block1_flicker_shape1_white_counterclockwise_notarget_incorrect_or_nopressloc34_
287	2	1	240	1	1	0	0	40	0	0	121100040	block1_	flicker_	shape1_	black_	counterclockwise_	loc40_	notarget_	incorrect_or_nopress	block1_flicker_shape1_black_counterclockwise_notarget_incorrect_or_nopressloc40_
288	2	1	210	2	2	0	0	10	0	0	122200010	block1_	flicker_	shape2_	white_	counterclockwise_	loc10_	notarget_	incorrect_or_nopress	block1_flicker_shape2_white_counterclockwise_notarget_incorrect_or_nopressloc10_
289	2	1	202	2	2	0	0	2	0	0	122200002	block1_	flicker_	shape2_	white_	counterclockwise_	loc2_	notarget_	incorrect_or_nopress	block1_flicker_shape2_white_counterclockwise_notarget_incorrect_or_nopressloc2_
290	2	1	239	2	1	0	0	39	0	0	122100039	block1_	flicker_	shape2_	black_	counterclockwise_	loc39_	notarget_	incorrect_or_nopress	block1_flicker_shape2_black_counterclockwise_notarget_incorrect_or_nopressloc39_
291	2	1	231	1	2	0	0	31	0	0	121200031	block1_	flicker_	shape1_	white_	counterclockwise_	loc31_	notarget_	incorrect_or_nopress	block1_flicker_shape1_white_counterclockwise_notarget_incorrect_or_nopressloc31_
292	2	1	259	1	2	0	0	59	0	0	121200059	block1_	flicker_	shape1_	white_	counterclockwise_	loc59_	notarget_	incorrect_or_nopress	block1_flicker_shape1_white_counterclockwise_notarget_incorrect_or_nopressloc59_
293	2	1	220	1	2	0	0	20	0	0	121200020	block1_	flicker_	shape1_	white_	counterclockwise_	loc20_	notarget_	incorrect_or_nopress	block1_flicker_shape1_white_counterclockwise_notarget_incorrect_or_nopressloc20_
294	2	1	209	1	1	0	0	9	0	0	121100009	block1_	flicker_	shape1_	black_	counterclockwise_	loc9_	notarget_	incorrect_or_nopress	block1_flicker_shape1_black_counterclockwise_notarget_incorrect_or_nopressloc9_
295	2	1	246	2	2	0	0	46	0	0	122200046	block1_	flicker_	shape2_	white_	counterclockwise_	loc46_	notarget_	incorrect_or_nopress	block1_flicker_shape2_white_counterclockwise_notarget_incorrect_or_nopressloc46_
296	2	1	235	2	1	0	0	35	0	0	122100035	block1_	flicker_	shape2_	black_	counterclockwise_	loc35_	notarget_	incorrect_or_nopress	block1_flicker_shape2_black_counterclockwise_notarget_incorrect_or_nopressloc35_
297	2	1	218	2	1	0	0	18	0	0	122100018	block1_	flicker_	shape2_	black_	counterclockwise_	loc18_	notarget_	incorrect_or_nopress	block1_flicker_shape2_black_counterclockwise_notarget_incorrect_or_nopressloc18_
298	2	1	206	1	2	0	0	6	0	0	121200006	block1_	flicker_	shape1_	white_	counterclockwise_	loc6_	notarget_	incorrect_or_nopress	block1_flicker_shape1_white_counterclockwise_notarget_incorrect_or_nopressloc6_
299	2	1	241	1	1	0	0	41	0	0	121100041	block1_	flicker_	shape1_	black_	counterclockwise_	loc41_	notarget_	incorrect_or_nopress	block1_flicker_shape1_black_counterclockwise_notarget_incorrect_or_nopressloc41_
300	2	1	219	1	1	0	0	19	0	0	121100019	block1_	flicker_	shape1_	black_	counterclockwise_	loc19_	notarget_	incorrect_or_nopress	block1_flicker_shape1_black_counterclockwise_notarget_incorrect_or_nopressloc19_
301	2	1	203	2	2	0	0	3	0	0	122200003	block1_	flicker_	shape2_	white_	counterclockwise_	loc3_	notarget_	incorrect_or_nopress	block1_flicker_shape2_white_counterclockwise_notarget_incorrect_or_nopressloc3_
302	2	1	255	1	2	0	0	55	0	0	121200055	block1_	flicker_	shape1_	white_	counterclockwise_	loc55_	notarget_	incorrect_or_nopress	block1_flicker_shape1_white_counterclockwise_notarget_incorrect_or_nopressloc55_
303	2	1	227	2	2	0	0	27	0	0	122200027	block1_	flicker_	shape2_	white_	counterclockwise_	loc27_	notarget_	incorrect_or_nopress	block1_flicker_shape2_white_counterclockwise_notarget_incorrect_or_nopressloc27_
304	2	1	253	1	1	0	0	53	0	0	121100053	block1_	flicker_	shape1_	black_	counterclockwise_	loc53_	notarget_	incorrect_or_nopress	block1_flicker_shape1_black_counterclockwise_notarget_incorrect_or_nopressloc53_
305	2	1	255	2	1	0	0	55	0	0	122100055	block1_	flicker_	shape2_	black_	counterclockwise_	loc55_	notarget_	incorrect_or_nopress	block1_flicker_shape2_black_counterclockwise_notarget_incorrect_or_nopressloc55_
306	2	1	206	2	1	0	0	6	0	0	122100006	block1_	flicker_	shape2_	black_	counterclockwise_	loc6_	notarget_	incorrect_or_nopress	block1_flicker_shape2_black_counterclockwise_notarget_incorrect_or_nopressloc6_
307	2	1	222	1	2	0	0	22	0	0	121200022	block1_	flicker_	shape1_	white_	counterclockwise_	loc22_	notarget_	incorrect_or_nopress	block1_flicker_shape1_white_counterclockwise_notarget_incorrect_or_nopressloc22_
308	2	1	249	1	2	0	0	49	0	0	121200049	block1_	flicker_	shape1_	white_	counterclockwise_	loc49_	notarget_	incorrect_or_nopress	block1_flicker_shape1_white_counterclockwise_notarget_incorrect_or_nopressloc49_
309	2	1	235	1	2	0	0	35	0	0	121200035	block1_	flicker_	shape1_	white_	counterclockwise_	loc35_	notarget_	incorrect_or_nopress	block1_flicker_shape1_white_counterclockwise_notarget_incorrect_or_nopressloc35_
310	2	1	247	2	2	0	0	47	0	0	122200047	block1_	flicker_	shape2_	white_	counterclockwise_	loc47_	notarget_	incorrect_or_nopress	block1_flicker_shape2_white_counterclockwise_notarget_incorrect_or_nopressloc47_
311	2	1	243	1	2	0	0	43	0	0	121200043	block1_	flicker_	shape1_	white_	counterclockwise_	loc43_	notarget_	incorrect_or_nopress	block1_flicker_shape1_white_counterclockwise_notarget_incorrect_or_nopressloc43_
312	2	1	245	1	1	0	0	45	0	0	121100045	block1_	flicker_	shape1_	black_	counterclockwise_	loc45_	notarget_	incorrect_or_nopress	block1_flicker_shape1_black_counterclockwise_notarget_incorrect_or_nopressloc45_
313	2	1	255	2	2	0	0	55	0	0	122200055	block1_	flicker_	shape2_	white_	counterclockwise_	loc55_	notarget_	incorrect_or_nopress	block1_flicker_shape2_white_counterclockwise_notarget_incorrect_or_nopressloc55_
314	2	1	233	1	2	0	0	33	0	0	121200033	block1_	flicker_	shape1_	white_	counterclockwise_	loc33_	notarget_	incorrect_or_nopress	block1_flicker_shape1_white_counterclockwise_notarget_incorrect_or_nopressloc33_
315	2	1	215	1	2	0	0	15	0	0	121200015	block1_	flicker_	shape1_	white_	counterclockwise_	loc15_	notarget_	incorrect_or_nopress	block1_flicker_shape1_white_counterclockwise_notarget_incorrect_or_nopressloc15_
316	2	1	210	1	1	0	0	10	0	0	121100010	block1_	flicker_	shape1_	black_	counterclockwise_	loc10_	notarget_	incorrect_or_nopress	block1_flicker_shape1_black_counterclockwise_notarget_incorrect_or_nopressloc10_
317	2	1	214	2	1	0	0	14	0	0	122100014	block1_	flicker_	shape2_	black_	counterclockwise_	loc14_	notarget_	incorrect_or_nopress	block1_flicker_shape2_black_counterclockwise_notarget_incorrect_or_nopressloc14_
318	2	1	201	2	1	0	0	1	0	0	122100001	block1_	flicker_	shape2_	black_	counterclockwise_	loc1_	notarget_	incorrect_or_nopress	block1_flicker_shape2_black_counterclockwise_notarget_incorrect_or_nopressloc1_
319	2	1	254	2	2	0	0	54	0	0	122200054	block1_	flicker_	shape2_	white_	counterclockwise_	loc54_	notarget_	incorrect_or_nopress	block1_flicker_shape2_white_counterclockwise_notarget_incorrect_or_nopressloc54_
320	2	1	230	2	2	0	0	30	0	0	122200030	block1_	flicker_	shape2_	white_	counterclockwise_	loc30_	notarget_	incorrect_or_nopress	block1_flicker_shape2_white_counterclockwise_notarget_incorrect_or_nopressloc30_
321	2	1	242	2	2	0	0	42	0	0	122200042	block1_	flicker_	shape2_	white_	counterclockwise_	loc42_	notarget_	incorrect_or_nopress	block1_flicker_shape2_white_counterclockwise_notarget_incorrect_or_nopressloc42_
322	2	1	254	2	1	0	0	54	0	0	122100054	block1_	flicker_	shape2_	black_	counterclockwise_	loc54_	notarget_	incorrect_or_nopress	block1_flicker_shape2_black_counterclockwise_notarget_incorrect_or_nopressloc54_
323	2	1	205	1	2	0	0	5	0	0	121200005	block1_	flicker_	shape1_	white_	counterclockwise_	loc5_	notarget_	incorrect_or_nopress	block1_flicker_shape1_white_counterclockwise_notarget_incorrect_or_nopressloc5_
324	2	1	244	2	1	0	0	44	0	0	122100044	block1_	flicker_	shape2_	black_	counterclockwise_	loc44_	notarget_	incorrect_or_nopress	block1_flicker_shape2_black_counterclockwise_notarget_incorrect_or_nopressloc44_
325	2	1	234	2	1	0	0	34	0	0	122100034	block1_	flicker_	shape2_	black_	counterclockwise_	loc34_	notarget_	incorrect_or_nopress	block1_flicker_shape2_black_counterclockwise_notarget_incorrect_or_nopressloc34_
326	2	1	253	2	1	0	0	53	0	0	122100053	block1_	flicker_	shape2_	black_	counterclockwise_	loc53_	notarget_	incorrect_or_nopress	block1_flicker_shape2_black_counterclockwise_notarget_incorrect_or_nopressloc53_
327	2	1	250	2	1	0	0	50	0	0	122100050	block1_	flicker_	shape2_	black_	counterclockwise_	loc50_	notarget_	incorrect_or_nopress	block1_flicker_shape2_black_counterclockwise_notarget_incorrect_or_nopressloc50_
328	2	1	264	1	1	0	0	64	0	0	121100064	block1_	flicker_	shape1_	black_	counterclockwise_	loc64_	notarget_	incorrect_or_nopress	block1_flicker_shape1_black_counterclockwise_notarget_incorrect_or_nopressloc64_
329	2	1	254	1	1	0	0	54	0	0	121100054	block1_	flicker_	shape1_	black_	counterclockwise_	loc54_	notarget_	incorrect_or_nopress	block1_flicker_shape1_black_counterclockwise_notarget_incorrect_or_nopressloc54_
330	2	1	230	1	2	0	0	30	0	0	121200030	block1_	flicker_	shape1_	white_	counterclockwise_	loc30_	notarget_	incorrect_or_nopress	block1_flicker_shape1_white_counterclockwise_notarget_incorrect_or_nopressloc30_
331	2	1	212	2	1	0	0	12	0	0	122100012	block1_	flicker_	shape2_	black_	counterclockwise_	loc12_	notarget_	incorrect_or_nopress	block1_flicker_shape2_black_counterclockwise_notarget_incorrect_or_nopressloc12_
332	2	1	219	2	1	0	0	19	0	0	122100019	block1_	flicker_	shape2_	black_	counterclockwise_	loc19_	notarget_	incorrect_or_nopress	block1_flicker_shape2_black_counterclockwise_notarget_incorrect_or_nopressloc19_
333	2	1	232	1	2	0	0	32	0	0	121200032	block1_	flicker_	shape1_	white_	counterclockwise_	loc32_	notarget_	incorrect_or_nopress	block1_flicker_shape1_white_counterclockwise_notarget_incorrect_or_nopressloc32_
334	2	1	205	2	1	0	0	5	0	0	122100005	block1_	flicker_	shape2_	black_	counterclockwise_	loc5_	notarget_	incorrect_or_nopress	block1_flicker_shape2_black_counterclockwise_notarget_incorrect_or_nopressloc5_
335	2	1	213	2	2	0	0	13	0	0	122200013	block1_	flicker_	shape2_	white_	counterclockwise_	loc13_	notarget_	incorrect_or_nopress	block1_flicker_shape2_white_counterclockwise_notarget_incorrect_or_nopressloc13_
336	2	1	209	2	2	0	0	9	0	0	122200009	block1_	flicker_	shape2_	white_	counterclockwise_	loc9_	notarget_	incorrect_or_nopress	block1_flicker_shape2_white_counterclockwise_notarget_incorrect_or_nopressloc9_
337	2	1	230	2	1	0	0	30	0	0	122100030	block1_	flicker_	shape2_	black_	counterclockwise_	loc30_	notarget_	incorrect_or_nopress	block1_flicker_shape2_black_counterclockwise_notarget_incorrect_or_nopressloc30_
338	2	1	264	1	2	0	0	64	0	0	121200064	block1_	flicker_	shape1_	white_	counterclockwise_	loc64_	notarget_	incorrect_or_nopress	block1_flicker_shape1_white_counterclockwise_notarget_incorrect_or_nopressloc64_
339	2	1	248	1	1	0	0	48	0	0	121100048	block1_	flicker_	shape1_	black_	counterclockwise_	loc48_	notarget_	incorrect_or_nopress	block1_flicker_shape1_black_counterclockwise_notarget_incorrect_or_nopressloc48_
340	2	1	232	1	1	0	0	32	0	0	121100032	block1_	flicker_	shape1_	black_	counterclockwise_	loc32_	notarget_	incorrect_or_nopress	block1_flicker_shape1_black_counterclockwise_notarget_incorrect_or_nopressloc32_
341	2	1	213	2	1	0	0	13	0	0	122100013	block1_	flicker_	shape2_	black_	counterclockwise_	loc13_	notarget_	incorrect_or_nopress	block1_flicker_shape2_black_counterclockwise_notarget_incorrect_or_nopressloc13_
342	2	1	258	2	2	0	0	58	0	0	122200058	block1_	flicker_	shape2_	white_	counterclockwise_	loc58_	notarget_	incorrect_or_nopress	block1_flicker_shape2_white_counterclockwise_notarget_incorrect_or_nopressloc58_
343	2	1	261	2	1	0	0	61	0	0	122100061	block1_	flicker_	shape2_	black_	counterclockwise_	loc61_	notarget_	incorrect_or_nopress	block1_flicker_shape2_black_counterclockwise_notarget_incorrect_or_nopressloc61_
344	2	1	223	2	2	0	0	23	0	0	122200023	block1_	flicker_	shape2_	white_	counterclockwise_	loc23_	notarget_	incorrect_or_nopress	block1_flicker_shape2_white_counterclockwise_notarget_incorrect_or_nopressloc23_
345	2	1	212	1	1	0	0	12	0	0	121100012	block1_	flicker_	shape1_	black_	counterclockwise_	loc12_	notarget_	incorrect_or_nopress	block1_flicker_shape1_black_counterclockwise_notarget_incorrect_or_nopressloc12_
346	2	1	247	1	1	0	0	47	0	0	121100047	block1_	flicker_	shape1_	black_	counterclockwise_	loc47_	notarget_	incorrect_or_nopress	block1_flicker_shape1_black_counterclockwise_notarget_incorrect_or_nopressloc47_
347	2	1	248	2	1	0	0	48	0	0	122100048	block1_	flicker_	shape2_	black_	counterclockwise_	loc48_	notarget_	incorrect_or_nopress	block1_flicker_shape2_black_counterclockwise_notarget_incorrect_or_nopressloc48_
348	2	1	260	1	2	0	0	60	0	0	121200060	block1_	flicker_	shape1_	white_	counterclockwise_	loc60_	notarget_	incorrect_or_nopress	block1_flicker_shape1_white_counterclockwise_notarget_incorrect_or_nopressloc60_
349	2	1	205	2	2	0	0	5	0	0	122200005	block1_	flicker_	shape2_	white_	counterclockwise_	loc5_	notarget_	incorrect_or_nopress	block1_flicker_shape2_white_counterclockwise_notarget_incorrect_or_nopressloc5_
350	2	1	232	2	1	0	0	32	0	0	122100032	block1_	flicker_	shape2_	black_	counterclockwise_	loc32_	notarget_	incorrect_or_nopress	block1_flicker_shape2_black_counterclockwise_notarget_incorrect_or_nopressloc32_
351	2	1	260	2	1	0	0	60	0	0	122100060	block1_	flicker_	shape2_	black_	counterclockwise_	loc60_	notarget_	incorrect_or_nopress	block1_flicker_shape2_black_counterclockwise_notarget_incorrect_or_nopressloc60_
352	2	1	219	2	2	0	0	19	0	0	122200019	block1_	flicker_	shape2_	white_	counterclockwise_	loc19_	notarget_	incorrect_or_nopress	block1_flicker_shape2_white_counterclockwise_notarget_incorrect_or_nopressloc19_
353	2	1	238	2	2	0	0	38	0	0	122200038	block1_	flicker_	shape2_	white_	counterclockwise_	loc38_	notarget_	incorrect_or_nopress	block1_flicker_shape2_white_counterclockwise_notarget_incorrect_or_nopressloc38_
354	2	1	202	1	1	0	0	2	0	0	121100002	block1_	flicker_	shape1_	black_	counterclockwise_	loc2_	notarget_	incorrect_or_nopress	block1_flicker_shape1_black_counterclockwise_notarget_incorrect_or_nopressloc2_
355	2	1	201	1	2	0	0	1	0	0	121200001	block1_	flicker_	shape1_	white_	counterclockwise_	loc1_	notarget_	incorrect_or_nopress	block1_flicker_shape1_white_counterclockwise_notarget_incorrect_or_nopressloc1_
356	2	1	221	2	1	0	0	21	0	0	122100021	block1_	flicker_	shape2_	black_	counterclockwise_	loc21_	notarget_	incorrect_or_nopress	block1_flicker_shape2_black_counterclockwise_notarget_incorrect_or_nopressloc21_
357	2	1	208	1	1	0	0	8	0	0	121100008	block1_	flicker_	shape1_	black_	counterclockwise_	loc8_	notarget_	incorrect_or_nopress	block1_flicker_shape1_black_counterclockwise_notarget_incorrect_or_nopressloc8_
358	2	1	221	1	2	0	0	21	0	0	121200021	block1_	flicker_	shape1_	white_	counterclockwise_	loc21_	notarget_	incorrect_or_nopress	block1_flicker_shape1_white_counterclockwise_notarget_incorrect_or_nopressloc21_
359	2	1	242	1	2	0	0	42	0	0	121200042	block1_	flicker_	shape1_	white_	counterclockwise_	loc42_	notarget_	incorrect_or_nopress	block1_flicker_shape1_white_counterclockwise_notarget_incorrect_or_nopressloc42_
360	2	1	231	1	1	0	0	31	0	0	121100031	block1_	flicker_	shape1_	black_	counterclockwise_	loc31_	notarget_	incorrect_or_nopress	block1_flicker_shape1_black_counterclockwise_notarget_incorrect_or_nopressloc31_
361	2	1	235	2	2	0	0	35	0	0	122200035	block1_	flicker_	shape2_	white_	counterclockwise_	loc35_	notarget_	incorrect_or_nopress	block1_flicker_shape2_white_counterclockwise_notarget_incorrect_or_nopressloc35_
362	2	1	238	1	1	0	0	38	0	0	121100038	block1_	flicker_	shape1_	black_	counterclockwise_	loc38_	notarget_	incorrect_or_nopress	block1_flicker_shape1_black_counterclockwise_notarget_incorrect_or_nopressloc38_
363	2	1	241	1	2	0	0	41	0	0	121200041	block1_	flicker_	shape1_	white_	counterclockwise_	loc41_	notarget_	incorrect_or_nopress	block1_flicker_shape1_white_counterclockwise_notarget_incorrect_or_nopressloc41_
364	2	1	204	2	1	0	0	4	0	0	122100004	block1_	flicker_	shape2_	black_	counterclockwise_	loc4_	notarget_	incorrect_or_nopress	block1_flicker_shape2_black_counterclockwise_notarget_incorrect_or_nopressloc4_
365	2	1	213	1	1	0	0	13	0	0	121100013	block1_	flicker_	shape1_	black_	counterclockwise_	loc13_	notarget_	incorrect_or_nopress	block1_flicker_shape1_black_counterclockwise_notarget_incorrect_or_nopressloc13_
366	2	1	220	2	2	0	0	20	0	0	122200020	block1_	flicker_	shape2_	white_	counterclockwise_	loc20_	notarget_	incorrect_or_nopress	block1_flicker_shape2_white_counterclockwise_notarget_incorrect_or_nopressloc20_
367	2	1	217	2	1	0	0	17	0	0	122100017	block1_	flicker_	shape2_	black_	counterclockwise_	loc17_	notarget_	incorrect_or_nopress	block1_flicker_shape2_black_counterclockwise_notarget_incorrect_or_nopressloc17_
368	2	1	262	2	2	0	0	62	0	0	122200062	block1_	flicker_	shape2_	white_	counterclockwise_	loc62_	notarget_	incorrect_or_nopress	block1_flicker_shape2_white_counterclockwise_notarget_incorrect_or_nopressloc62_
369	2	1	249	1	1	0	0	49	0	0	121100049	block1_	flicker_	shape1_	black_	counterclockwise_	loc49_	notarget_	incorrect_or_nopress	block1_flicker_shape1_black_counterclockwise_notarget_incorrect_or_nopressloc49_
370	2	1	241	2	2	0	0	41	0	0	122200041	block1_	flicker_	shape2_	white_	counterclockwise_	loc41_	notarget_	incorrect_or_nopress	block1_flicker_shape2_white_counterclockwise_notarget_incorrect_or_nopressloc41_
371	2	1	229	1	2	0	0	29	0	0	121200029	block1_	flicker_	shape1_	white_	counterclockwise_	loc29_	notarget_	incorrect_or_nopress	block1_flicker_shape1_white_counterclockwise_notarget_incorrect_or_nopressloc29_
372	2	1	248	2	2	0	0	48	0	0	122200048	block1_	flicker_	shape2_	white_	counterclockwise_	loc48_	notarget_	incorrect_or_nopress	block1_flicker_shape2_white_counterclockwise_notarget_incorrect_or_nopressloc48_
373	2	1	203	2	1	0	0	3	0	0	122100003	block1_	flicker_	shape2_	black_	counterclockwise_	loc3_	notarget_	incorrect_or_nopress	block1_flicker_shape2_black_counterclockwise_notarget_incorrect_or_nopressloc3_
374	2	1	239	2	2	0	0	39	0	0	122200039	block1_	flicker_	shape2_	white_	counterclockwise_	loc39_	notarget_	incorrect_or_nopress	block1_flicker_shape2_white_counterclockwise_notarget_incorrect_or_nopressloc39_
375	2	1	262	1	1	0	0	62	0	0	121100062	block1_	flicker_	shape1_	black_	counterclockwise_	loc62_	notarget_	incorrect_or_nopress	block1_flicker_shape1_black_counterclockwise_notarget_incorrect_or_nopressloc62_
376	2	1	222	1	1	0	0	22	0	0	121100022	block1_	flicker_	shape1_	black_	counterclockwise_	loc22_	notarget_	incorrect_or_nopress	block1_flicker_shape1_black_counterclockwise_notarget_incorrect_or_nopressloc22_
377	2	1	228	1	2	0	0	28	0	0	121200028	block1_	flicker_	shape1_	white_	counterclockwise_	loc28_	notarget_	incorrect_or_nopress	block1_flicker_shape1_white_counterclockwise_notarget_incorrect_or_nopressloc28_
378	2	1	228	1	1	0	0	28	0	0	121100028	block1_	flicker_	shape1_	black_	counterclockwise_	loc28_	notarget_	incorrect_or_nopress	block1_flicker_shape1_black_counterclockwise_notarget_incorrect_or_nopressloc28_
379	2	1	243	2	2	0	0	43	0	0	122200043	block1_	flicker_	shape2_	white_	counterclockwise_	loc43_	notarget_	incorrect_or_nopress	block1_flicker_shape2_white_counterclockwise_notarget_incorrect_or_nopressloc43_
380	2	1	255	1	1	0	0	55	0	0	121100055	block1_	flicker_	shape1_	black_	counterclockwise_	loc55_	notarget_	incorrect_or_nopress	block1_flicker_shape1_black_counterclockwise_notarget_incorrect_or_nopressloc55_
381	2	1	211	2	1	0	0	11	0	0	122100011	block1_	flicker_	shape2_	black_	counterclockwise_	loc11_	notarget_	incorrect_or_nopress	block1_flicker_shape2_black_counterclockwise_notarget_incorrect_or_nopressloc11_
382	2	1	208	1	2	0	0	8	0	0	121200008	block1_	flicker_	shape1_	white_	counterclockwise_	loc8_	notarget_	incorrect_or_nopress	block1_flicker_shape1_white_counterclockwise_notarget_incorrect_or_nopressloc8_
383	2	1	263	1	1	0	0	63	0	0	121100063	block1_	flicker_	shape1_	black_	counterclockwise_	loc63_	notarget_	incorrect_or_nopress	block1_flicker_shape1_black_counterclockwise_notarget_incorrect_or_nopressloc63_
384	2	1	245	2	1	0	0	45	0	0	122100045	block1_	flicker_	shape2_	black_	counterclockwise_	loc45_	notarget_	incorrect_or_nopress	block1_flicker_shape2_black_counterclockwise_notarget_incorrect_or_nopressloc45_
385	2	1	239	1	1	0	0	39	0	0	121100039	block1_	flicker_	shape1_	black_	counterclockwise_	loc39_	notarget_	incorrect_or_nopress	block1_flicker_shape1_black_counterclockwise_notarget_incorrect_or_nopressloc39_
386	2	1	214	1	1	0	0	14	0	0	121100014	block1_	flicker_	shape1_	black_	counterclockwise_	loc14_	notarget_	incorrect_or_nopress	block1_flicker_shape1_black_counterclockwise_notarget_incorrect_or_nopressloc14_
387	2	1	249	1	2	0	2	49	2	0	121202049	block1_	flicker_	shape1_	white_	counterclockwise_	loc49_	padding_	incorrect_or_nopress	block1_flicker_shape1_white_counterclockwise_padding_incorrect_or_nopressloc49_
388	2	1	230	2	2	0	0	30	0	0	122200030	block1_	flicker_	shape2_	white_	counterclockwise_	loc30_	notarget_	incorrect_or_nopress	block1_flicker_shape2_white_counterclockwise_notarget_incorrect_or_nopressloc30_
389	2	1	226	2	2	0	0	26	0	0	122200026	block1_	flicker_	shape2_	white_	counterclockwise_	loc26_	notarget_	incorrect_or_nopress	block1_flicker_shape2_white_counterclockwise_notarget_incorrect_or_nopressloc26_
390	2	1	202	1	1	0	0	2	0	0	121100002	block1_	flicker_	shape1_	black_	counterclockwise_	loc2_	notarget_	incorrect_or_nopress	block1_flicker_shape1_black_counterclockwise_notarget_incorrect_or_nopressloc2_
391	2	1	252	1	1	0	0	52	0	0	121100052	block1_	flicker_	shape1_	black_	counterclockwise_	loc52_	notarget_	incorrect_or_nopress	block1_flicker_shape1_black_counterclockwise_notarget_incorrect_or_nopressloc52_
392	2	1	247	2	2	0	0	47	0	0	122200047	block1_	flicker_	shape2_	white_	counterclockwise_	loc47_	notarget_	incorrect_or_nopress	block1_flicker_shape2_white_counterclockwise_notarget_incorrect_or_nopressloc47_
393	2	1	228	2	1	0	0	28	0	0	122100028	block1_	flicker_	shape2_	black_	counterclockwise_	loc28_	notarget_	incorrect_or_nopress	block1_flicker_shape2_black_counterclockwise_notarget_incorrect_or_nopressloc28_
394	2	1	219	2	1	0	0	19	0	0	122100019	block1_	flicker_	shape2_	black_	counterclockwise_	loc19_	notarget_	incorrect_or_nopress	block1_flicker_shape2_black_counterclockwise_notarget_incorrect_or_nopressloc19_
395	2	1	248	2	2	0	0	48	0	0	122200048	block1_	flicker_	shape2_	white_	counterclockwise_	loc48_	notarget_	incorrect_or_nopress	block1_flicker_shape2_white_counterclockwise_notarget_incorrect_or_nopressloc48_
396	2	1	236	2	2	0	0	36	0	0	122200036	block1_	flicker_	shape2_	white_	counterclockwise_	loc36_	notarget_	incorrect_or_nopress	block1_flicker_shape2_white_counterclockwise_notarget_incorrect_or_nopressloc36_
397	2	1	204	1	1	0	0	4	0	0	121100004	block1_	flicker_	shape1_	black_	counterclockwise_	loc4_	notarget_	incorrect_or_nopress	block1_flicker_shape1_black_counterclockwise_notarget_incorrect_or_nopressloc4_
398	2	1	242	2	2	0	0	42	0	0	122200042	block1_	flicker_	shape2_	white_	counterclockwise_	loc42_	notarget_	incorrect_or_nopress	block1_flicker_shape2_white_counterclockwise_notarget_incorrect_or_nopressloc42_
399	2	1	258	1	2	0	0	58	0	0	121200058	block1_	flicker_	shape1_	white_	counterclockwise_	loc58_	notarget_	incorrect_or_nopress	block1_flicker_shape1_white_counterclockwise_notarget_incorrect_or_nopressloc58_
400	2	1	254	1	2	0	0	54	0	0	121200054	block1_	flicker_	shape1_	white_	counterclockwise_	loc54_	notarget_	incorrect_or_nopress	block1_flicker_shape1_white_counterclockwise_notarget_incorrect_or_nopressloc54_
401	2	1	236	2	1	0	0	36	0	0	122100036	block1_	flicker_	shape2_	black_	counterclockwise_	loc36_	notarget_	incorrect_or_nopress	block1_flicker_shape2_black_counterclockwise_notarget_incorrect_or_nopressloc36_
402	2	1	240	2	1	0	0	40	0	0	122100040	block1_	flicker_	shape2_	black_	counterclockwise_	loc40_	notarget_	incorrect_or_nopress	block1_flicker_shape2_black_counterclockwise_notarget_incorrect_or_nopressloc40_
403	2	1	222	1	1	0	0	22	0	0	121100022	block1_	flicker_	shape1_	black_	counterclockwise_	loc22_	notarget_	incorrect_or_nopress	block1_flicker_shape1_black_counterclockwise_notarget_incorrect_or_nopressloc22_
404	2	1	229	2	2	0	2	29	2	0	122202029	block1_	flicker_	shape2_	white_	counterclockwise_	loc29_	padding_	incorrect_or_nopress	block1_flicker_shape2_white_counterclockwise_padding_incorrect_or_nopressloc29_
405	2	1	237	1	2	0	2	37	2	0	121202037	block1_	flicker_	shape1_	white_	counterclockwise_	loc37_	padding_	incorrect_or_nopress	block1_flicker_shape1_white_counterclockwise_padding_incorrect_or_nopressloc37_
406	2	1	227	1	2	0	2	27	2	0	121202027	block1_	flicker_	shape1_	white_	counterclockwise_	loc27_	padding_	incorrect_or_nopress	block1_flicker_shape1_white_counterclockwise_padding_incorrect_or_nopressloc27_
407	2	1	205	2	1	0	2	5	2	0	122102005	block1_	flicker_	shape2_	black_	counterclockwise_	loc5_	padding_	incorrect_or_nopress	block1_flicker_shape2_black_counterclockwise_padding_incorrect_or_nopressloc5_
408	2	1	235	1	1	0	2	35	2	0	121102035	block1_	flicker_	shape1_	black_	counterclockwise_	loc35_	padding_	incorrect_or_nopress	block1_flicker_shape1_black_counterclockwise_padding_incorrect_or_nopressloc35_
409	2	1	259	1	2	0	2	59	2	0	121202059	block1_	flicker_	shape1_	white_	counterclockwise_	loc59_	padding_	incorrect_or_nopress	block1_flicker_shape1_white_counterclockwise_padding_incorrect_or_nopressloc59_
410	2	1	225	1	1	0	2	25	2	0	121102025	block1_	flicker_	shape1_	black_	counterclockwise_	loc25_	padding_	incorrect_or_nopress	block1_flicker_shape1_black_counterclockwise_padding_incorrect_or_nopressloc25_
411	2	1	238	1	1	0	1	38	1	0	121101038	block1_	flicker_	shape1_	black_	counterclockwise_	loc38_	istarget_	incorrect_or_nopress	block1_flicker_shape1_black_counterclockwise_istarget_incorrect_or_nopressloc38_
412	2	1	249	2	2	0	2	49	2	0	122202049	block1_	flicker_	shape2_	white_	counterclockwise_	loc49_	padding_	incorrect_or_nopress	block1_flicker_shape2_white_counterclockwise_padding_incorrect_or_nopressloc49_
413	2	1	248	1	1	0	2	48	2	0	121102048	block1_	flicker_	shape1_	black_	counterclockwise_	loc48_	padding_	incorrect_or_nopress	block1_flicker_shape1_black_counterclockwise_padding_incorrect_or_nopressloc48_
414	2	1	207	2	1	0	2	7	2	1	122102107	block1_	flicker_	shape2_	black_	counterclockwise_	loc7_	padding_	correct_or_press	block1_flicker_shape2_black_counterclockwise_padding_correct_or_pressloc7_
415	2	1	208	2	1	0	2	8	2	1	122102108	block1_	flicker_	shape2_	black_	counterclockwise_	loc8_	padding_	correct_or_press	block1_flicker_shape2_black_counterclockwise_padding_correct_or_pressloc8_
416	2	1	239	2	2	0	2	39	2	0	122202039	block1_	flicker_	shape2_	white_	counterclockwise_	loc39_	padding_	incorrect_or_nopress	block1_flicker_shape2_white_counterclockwise_padding_incorrect_or_nopressloc39_
417	2	1	255	2	2	0	2	55	2	0	122202055	block1_	flicker_	shape2_	white_	counterclockwise_	loc55_	padding_	incorrect_or_nopress	block1_flicker_shape2_white_counterclockwise_padding_incorrect_or_nopressloc55_
418	2	1	240	2	1	0	2	40	2	0	122102040	block1_	flicker_	shape2_	black_	counterclockwise_	loc40_	padding_	incorrect_or_nopress	block1_flicker_shape2_black_counterclockwise_padding_incorrect_or_nopressloc40_
419	2	1	246	1	2	0	2	46	2	0	121202046	block1_	flicker_	shape1_	white_	counterclockwise_	loc46_	padding_	incorrect_or_nopress	block1_flicker_shape1_white_counterclockwise_padding_incorrect_or_nopressloc46_
420	2	1	235	1	1	0	0	35	0	0	121100035	block1_	flicker_	shape1_	black_	counterclockwise_	loc35_	notarget_	incorrect_or_nopress	block1_flicker_shape1_black_counterclockwise_notarget_incorrect_or_nopressloc35_
421	2	1	238	1	1	0	0	38	0	0	121100038	block1_	flicker_	shape1_	black_	counterclockwise_	loc38_	notarget_	incorrect_or_nopress	block1_flicker_shape1_black_counterclockwise_notarget_incorrect_or_nopressloc38_
422	2	1	208	1	2	0	0	8	0	0	121200008	block1_	flicker_	shape1_	white_	counterclockwise_	loc8_	notarget_	incorrect_or_nopress	block1_flicker_shape1_white_counterclockwise_notarget_incorrect_or_nopressloc8_
423	2	1	212	1	2	0	0	12	0	0	121200012	block1_	flicker_	shape1_	white_	counterclockwise_	loc12_	notarget_	incorrect_or_nopress	block1_flicker_shape1_white_counterclockwise_notarget_incorrect_or_nopressloc12_
424	2	1	237	2	2	0	0	37	0	0	122200037	block1_	flicker_	shape2_	white_	counterclockwise_	loc37_	notarget_	incorrect_or_nopress	block1_flicker_shape2_white_counterclockwise_notarget_incorrect_or_nopressloc37_
425	2	1	218	1	2	0	0	18	0	0	121200018	block1_	flicker_	shape1_	white_	counterclockwise_	loc18_	notarget_	incorrect_or_nopress	block1_flicker_shape1_white_counterclockwise_notarget_incorrect_or_nopressloc18_
426	2	1	206	2	1	0	0	6	0	0	122100006	block1_	flicker_	shape2_	black_	counterclockwise_	loc6_	notarget_	incorrect_or_nopress	block1_flicker_shape2_black_counterclockwise_notarget_incorrect_or_nopressloc6_
427	2	1	219	2	2	0	0	19	0	0	122200019	block1_	flicker_	shape2_	white_	counterclockwise_	loc19_	notarget_	incorrect_or_nopress	block1_flicker_shape2_white_counterclockwise_notarget_incorrect_or_nopressloc19_
428	2	1	253	2	1	0	0	53	0	0	122100053	block1_	flicker_	shape2_	black_	counterclockwise_	loc53_	notarget_	incorrect_or_nopress	block1_flicker_shape2_black_counterclockwise_notarget_incorrect_or_nopressloc53_
429	2	1	218	1	1	0	0	18	0	0	121100018	block1_	flicker_	shape1_	black_	counterclockwise_	loc18_	notarget_	incorrect_or_nopress	block1_flicker_shape1_black_counterclockwise_notarget_incorrect_or_nopressloc18_
430	2	1	263	1	1	0	0	63	0	0	121100063	block1_	flicker_	shape1_	black_	counterclockwise_	loc63_	notarget_	incorrect_or_nopress	block1_flicker_shape1_black_counterclockwise_notarget_incorrect_or_nopressloc63_
431	2	1	247	1	2	0	0	47	0	0	121200047	block1_	flicker_	shape1_	white_	counterclockwise_	loc47_	notarget_	incorrect_or_nopress	block1_flicker_shape1_white_counterclockwise_notarget_incorrect_or_nopressloc47_
432	2	1	248	2	1	0	0	48	0	0	122100048	block1_	flicker_	shape2_	black_	counterclockwise_	loc48_	notarget_	incorrect_or_nopress	block1_flicker_shape2_black_counterclockwise_notarget_incorrect_or_nopressloc48_
433	2	1	221	2	1	0	0	21	0	0	122100021	block1_	flicker_	shape2_	black_	counterclockwise_	loc21_	notarget_	incorrect_or_nopress	block1_flicker_shape2_black_counterclockwise_notarget_incorrect_or_nopressloc21_
434	2	1	262	1	1	0	0	62	0	0	121100062	block1_	flicker_	shape1_	black_	counterclockwise_	loc62_	notarget_	incorrect_or_nopress	block1_flicker_shape1_black_counterclockwise_notarget_incorrect_or_nopressloc62_
435	2	1	207	1	2	0	0	7	0	0	121200007	block1_	flicker_	shape1_	white_	counterclockwise_	loc7_	notarget_	incorrect_or_nopress	block1_flicker_shape1_white_counterclockwise_notarget_incorrect_or_nopressloc7_
436	2	1	214	1	2	0	0	14	0	0	121200014	block1_	flicker_	shape1_	white_	counterclockwise_	loc14_	notarget_	incorrect_or_nopress	block1_flicker_shape1_white_counterclockwise_notarget_incorrect_or_nopressloc14_
437	2	1	229	1	2	0	0	29	0	0	121200029	block1_	flicker_	shape1_	white_	counterclockwise_	loc29_	notarget_	incorrect_or_nopress	block1_flicker_shape1_white_counterclockwise_notarget_incorrect_or_nopressloc29_
438	2	1	203	1	2	0	0	3	0	0	121200003	block1_	flicker_	shape1_	white_	counterclockwise_	loc3_	notarget_	incorrect_or_nopress	block1_flicker_shape1_white_counterclockwise_notarget_incorrect_or_nopressloc3_
439	2	1	213	2	1	0	0	13	0	0	122100013	block1_	flicker_	shape2_	black_	counterclockwise_	loc13_	notarget_	incorrect_or_nopress	block1_flicker_shape2_black_counterclockwise_notarget_incorrect_or_nopressloc13_
440	2	1	211	1	2	0	0	11	0	0	121200011	block1_	flicker_	shape1_	white_	counterclockwise_	loc11_	notarget_	incorrect_or_nopress	block1_flicker_shape1_white_counterclockwise_notarget_incorrect_or_nopressloc11_
441	2	1	260	1	1	0	0	60	0	0	121100060	block1_	flicker_	shape1_	black_	counterclockwise_	loc60_	notarget_	incorrect_or_nopress	block1_flicker_shape1_black_counterclockwise_notarget_incorrect_or_nopressloc60_
442	2	1	201	2	1	0	0	1	0	0	122100001	block1_	flicker_	shape2_	black_	counterclockwise_	loc1_	notarget_	incorrect_or_nopress	block1_flicker_shape2_black_counterclockwise_notarget_incorrect_or_nopressloc1_
443	2	1	234	2	2	0	0	34	0	0	122200034	block1_	flicker_	shape2_	white_	counterclockwise_	loc34_	notarget_	incorrect_or_nopress	block1_flicker_shape2_white_counterclockwise_notarget_incorrect_or_nopressloc34_
444	2	1	232	1	1	0	0	32	0	0	121100032	block1_	flicker_	shape1_	black_	counterclockwise_	loc32_	notarget_	incorrect_or_nopress	block1_flicker_shape1_black_counterclockwise_notarget_incorrect_or_nopressloc32_
445	2	1	243	2	2	0	0	43	0	0	122200043	block1_	flicker_	shape2_	white_	counterclockwise_	loc43_	notarget_	incorrect_or_nopress	block1_flicker_shape2_white_counterclockwise_notarget_incorrect_or_nopressloc43_
446	2	1	250	1	2	0	0	50	0	0	121200050	block1_	flicker_	shape1_	white_	counterclockwise_	loc50_	notarget_	incorrect_or_nopress	block1_flicker_shape1_white_counterclockwise_notarget_incorrect_or_nopressloc50_
447	2	1	208	2	1	0	0	8	0	0	122100008	block1_	flicker_	shape2_	black_	counterclockwise_	loc8_	notarget_	incorrect_or_nopress	block1_flicker_shape2_black_counterclockwise_notarget_incorrect_or_nopressloc8_
448	2	1	263	2	1	0	0	63	0	0	122100063	block1_	flicker_	shape2_	black_	counterclockwise_	loc63_	notarget_	incorrect_or_nopress	block1_flicker_shape2_black_counterclockwise_notarget_incorrect_or_nopressloc63_
449	2	1	205	1	1	0	0	5	0	0	121100005	block1_	flicker_	shape1_	black_	counterclockwise_	loc5_	notarget_	incorrect_or_nopress	block1_flicker_shape1_black_counterclockwise_notarget_incorrect_or_nopressloc5_
450	2	1	257	2	2	0	0	57	0	0	122200057	block1_	flicker_	shape2_	white_	counterclockwise_	loc57_	notarget_	incorrect_or_nopress	block1_flicker_shape2_white_counterclockwise_notarget_incorrect_or_nopressloc57_
451	2	1	231	1	2	0	0	31	0	0	121200031	block1_	flicker_	shape1_	white_	counterclockwise_	loc31_	notarget_	incorrect_or_nopress	block1_flicker_shape1_white_counterclockwise_notarget_incorrect_or_nopressloc31_
452	2	1	224	1	1	0	0	24	0	0	121100024	block1_	flicker_	shape1_	black_	counterclockwise_	loc24_	notarget_	incorrect_or_nopress	block1_flicker_shape1_black_counterclockwise_notarget_incorrect_or_nopressloc24_
453	2	1	264	2	1	0	0	64	0	0	122100064	block1_	flicker_	shape2_	black_	counterclockwise_	loc64_	notarget_	incorrect_or_nopress	block1_flicker_shape2_black_counterclockwise_notarget_incorrect_or_nopressloc64_
454	2	1	217	2	1	0	0	17	0	0	122100017	block1_	flicker_	shape2_	black_	counterclockwise_	loc17_	notarget_	incorrect_or_nopress	block1_flicker_shape2_black_counterclockwise_notarget_incorrect_or_nopressloc17_
455	2	1	260	2	1	0	0	60	0	0	122100060	block1_	flicker_	shape2_	black_	counterclockwise_	loc60_	notarget_	incorrect_or_nopress	block1_flicker_shape2_black_counterclockwise_notarget_incorrect_or_nopressloc60_
456	2	1	257	2	1	0	0	57	0	0	122100057	block1_	flicker_	shape2_	black_	counterclockwise_	loc57_	notarget_	incorrect_or_nopress	block1_flicker_shape2_black_counterclockwise_notarget_incorrect_or_nopressloc57_
457	2	1	224	2	2	0	0	24	0	0	122200024	block1_	flicker_	shape2_	white_	counterclockwise_	loc24_	notarget_	incorrect_or_nopress	block1_flicker_shape2_white_counterclockwise_notarget_incorrect_or_nopressloc24_
458	2	1	223	2	1	0	0	23	0	0	122100023	block1_	flicker_	shape2_	black_	counterclockwise_	loc23_	notarget_	incorrect_or_nopress	block1_flicker_shape2_black_counterclockwise_notarget_incorrect_or_nopressloc23_
459	2	1	254	2	1	0	0	54	0	0	122100054	block1_	flicker_	shape2_	black_	counterclockwise_	loc54_	notarget_	incorrect_or_nopress	block1_flicker_shape2_black_counterclockwise_notarget_incorrect_or_nopressloc54_
460	2	1	244	2	1	0	0	44	0	0	122100044	block1_	flicker_	shape2_	black_	counterclockwise_	loc44_	notarget_	incorrect_or_nopress	block1_flicker_shape2_black_counterclockwise_notarget_incorrect_or_nopressloc44_
461	2	1	247	1	1	0	0	47	0	0	121100047	block1_	flicker_	shape1_	black_	counterclockwise_	loc47_	notarget_	incorrect_or_nopress	block1_flicker_shape1_black_counterclockwise_notarget_incorrect_or_nopressloc47_
462	2	1	216	1	1	0	0	16	0	0	121100016	block1_	flicker_	shape1_	black_	counterclockwise_	loc16_	notarget_	incorrect_or_nopress	block1_flicker_shape1_black_counterclockwise_notarget_incorrect_or_nopressloc16_
463	2	1	208	2	2	0	0	8	0	0	122200008	block1_	flicker_	shape2_	white_	counterclockwise_	loc8_	notarget_	incorrect_or_nopress	block1_flicker_shape2_white_counterclockwise_notarget_incorrect_or_nopressloc8_
464	2	1	251	2	2	0	0	51	0	0	122200051	block1_	flicker_	shape2_	white_	counterclockwise_	loc51_	notarget_	incorrect_or_nopress	block1_flicker_shape2_white_counterclockwise_notarget_incorrect_or_nopressloc51_
465	2	1	234	1	1	0	0	34	0	0	121100034	block1_	flicker_	shape1_	black_	counterclockwise_	loc34_	notarget_	incorrect_or_nopress	block1_flicker_shape1_black_counterclockwise_notarget_incorrect_or_nopressloc34_
466	2	1	240	1	2	0	0	40	0	0	121200040	block1_	flicker_	shape1_	white_	counterclockwise_	loc40_	notarget_	incorrect_or_nopress	block1_flicker_shape1_white_counterclockwise_notarget_incorrect_or_nopressloc40_
467	2	1	262	2	2	0	0	62	0	0	122200062	block1_	flicker_	shape2_	white_	counterclockwise_	loc62_	notarget_	incorrect_or_nopress	block1_flicker_shape2_white_counterclockwise_notarget_incorrect_or_nopressloc62_
468	2	1	264	1	1	0	0	64	0	0	121100064	block1_	flicker_	shape1_	black_	counterclockwise_	loc64_	notarget_	incorrect_or_nopress	block1_flicker_shape1_black_counterclockwise_notarget_incorrect_or_nopressloc64_
469	2	1	221	1	1	0	0	21	0	0	121100021	block1_	flicker_	shape1_	black_	counterclockwise_	loc21_	notarget_	incorrect_or_nopress	block1_flicker_shape1_black_counterclockwise_notarget_incorrect_or_nopressloc21_
470	2	1	242	2	1	0	0	42	0	0	122100042	block1_	flicker_	shape2_	black_	counterclockwise_	loc42_	notarget_	incorrect_or_nopress	block1_flicker_shape2_black_counterclockwise_notarget_incorrect_or_nopressloc42_
471	2	1	228	1	2	0	0	28	0	0	121200028	block1_	flicker_	shape1_	white_	counterclockwise_	loc28_	notarget_	incorrect_or_nopress	block1_flicker_shape1_white_counterclockwise_notarget_incorrect_or_nopressloc28_
472	2	1	243	1	2	0	0	43	0	0	121200043	block1_	flicker_	shape1_	white_	counterclockwise_	loc43_	notarget_	incorrect_or_nopress	block1_flicker_shape1_white_counterclockwise_notarget_incorrect_or_nopressloc43_
473	2	1	252	2	1	0	0	52	0	0	122100052	block1_	flicker_	shape2_	black_	counterclockwise_	loc52_	notarget_	incorrect_or_nopress	block1_flicker_shape2_black_counterclockwise_notarget_incorrect_or_nopressloc52_
474	2	1	236	1	2	0	0	36	0	0	121200036	block1_	flicker_	shape1_	white_	counterclockwise_	loc36_	notarget_	incorrect_or_nopress	block1_flicker_shape1_white_counterclockwise_notarget_incorrect_or_nopressloc36_
475	2	1	235	2	2	0	0	35	0	0	122200035	block1_	flicker_	shape2_	white_	counterclockwise_	loc35_	notarget_	incorrect_or_nopress	block1_flicker_shape2_white_counterclockwise_notarget_incorrect_or_nopressloc35_
476	2	1	221	2	2	0	0	21	0	0	122200021	block1_	flicker_	shape2_	white_	counterclockwise_	loc21_	notarget_	incorrect_or_nopress	block1_flicker_shape2_white_counterclockwise_notarget_incorrect_or_nopressloc21_
477	2	1	236	1	1	0	0	36	0	0	121100036	block1_	flicker_	shape1_	black_	counterclockwise_	loc36_	notarget_	incorrect_or_nopress	block1_flicker_shape1_black_counterclockwise_notarget_incorrect_or_nopressloc36_
478	2	1	229	2	2	0	0	29	0	0	122200029	block1_	flicker_	shape2_	white_	counterclockwise_	loc29_	notarget_	incorrect_or_nopress	block1_flicker_shape2_white_counterclockwise_notarget_incorrect_or_nopressloc29_
479	2	1	206	2	2	0	0	6	0	0	122200006	block1_	flicker_	shape2_	white_	counterclockwise_	loc6_	notarget_	incorrect_or_nopress	block1_flicker_shape2_white_counterclockwise_notarget_incorrect_or_nopressloc6_
480	2	1	261	1	1	0	0	61	0	0	121100061	block1_	flicker_	shape1_	black_	counterclockwise_	loc61_	notarget_	incorrect_or_nopress	block1_flicker_shape1_black_counterclockwise_notarget_incorrect_or_nopressloc61_
481	2	1	263	2	2	0	0	63	0	0	122200063	block1_	flicker_	shape2_	white_	counterclockwise_	loc63_	notarget_	incorrect_or_nopress	block1_flicker_shape2_white_counterclockwise_notarget_incorrect_or_nopressloc63_
482	2	1	249	1	1	0	0	49	0	0	121100049	block1_	flicker_	shape1_	black_	counterclockwise_	loc49_	notarget_	incorrect_or_nopress	block1_flicker_shape1_black_counterclockwise_notarget_incorrect_or_nopressloc49_
483	2	1	228	2	2	0	0	28	0	0	122200028	block1_	flicker_	shape2_	white_	counterclockwise_	loc28_	notarget_	incorrect_or_nopress	block1_flicker_shape2_white_counterclockwise_notarget_incorrect_or_nopressloc28_
484	2	1	252	2	2	0	0	52	0	0	122200052	block1_	flicker_	shape2_	white_	counterclockwise_	loc52_	notarget_	incorrect_or_nopress	block1_flicker_shape2_white_counterclockwise_notarget_incorrect_or_nopressloc52_
485	2	1	254	2	2	0	0	54	0	0	122200054	block1_	flicker_	shape2_	white_	counterclockwise_	loc54_	notarget_	incorrect_or_nopress	block1_flicker_shape2_white_counterclockwise_notarget_incorrect_or_nopressloc54_
