	trial_type	block_num	trialID	shape	colour	direction	istarget	start_loc	target_position	accuracy_or_button	unique_ID	block_num_mod	trial_type_mod	shape_mod	colour_mod	direction_mod	start_loc_mod	istarget_mod	accuracy_or_button_mod	condition_name
0	1	6	114	1	2	1	0	2	0	0	611210002	block6_	disappearance_	shape1_	white_	clockwise_	loc2_	notarget_	incorrect_or_nopress	block6_disappearance_shape1_white_clockwise_notarget_incorrect_or_nopressloc2_
1	1	6	102	1	1	2	0	2	0	1	611120102	block6_	disappearance_	shape1_	black_	counterclockwise_	loc2_	notarget_	correct_or_press	block6_disappearance_shape1_black_counterclockwise_notarget_correct_or_pressloc2_
2	1	6	110	1	2	2	0	2	0	1	611220102	block6_	disappearance_	shape1_	white_	counterclockwise_	loc2_	notarget_	correct_or_press	block6_disappearance_shape1_white_counterclockwise_notarget_correct_or_pressloc2_
3	1	6	104	1	1	2	0	4	0	1	611120104	block6_	disappearance_	shape1_	black_	counterclockwise_	loc4_	notarget_	correct_or_press	block6_disappearance_shape1_black_counterclockwise_notarget_correct_or_pressloc4_
4	1	6	123	2	1	1	0	3	0	1	612110103	block6_	disappearance_	shape2_	black_	clockwise_	loc3_	notarget_	correct_or_press	block6_disappearance_shape2_black_clockwise_notarget_correct_or_pressloc3_
5	1	6	117	2	1	2	0	1	0	1	612120101	block6_	disappearance_	shape2_	black_	counterclockwise_	loc1_	notarget_	correct_or_press	block6_disappearance_shape2_black_counterclockwise_notarget_correct_or_pressloc1_
6	1	6	122	2	1	1	0	2	0	1	612110102	block6_	disappearance_	shape2_	black_	clockwise_	loc2_	notarget_	correct_or_press	block6_disappearance_shape2_black_clockwise_notarget_correct_or_pressloc2_
7	1	6	119	2	1	2	0	3	0	1	612120103	block6_	disappearance_	shape2_	black_	counterclockwise_	loc3_	notarget_	correct_or_press	block6_disappearance_shape2_black_counterclockwise_notarget_correct_or_pressloc3_
8	1	6	118	2	1	2	0	2	0	1	612120102	block6_	disappearance_	shape2_	black_	counterclockwise_	loc2_	notarget_	correct_or_press	block6_disappearance_shape2_black_counterclockwise_notarget_correct_or_pressloc2_
9	1	6	128	2	2	2	0	4	0	1	612220104	block6_	disappearance_	shape2_	white_	counterclockwise_	loc4_	notarget_	correct_or_press	block6_disappearance_shape2_white_counterclockwise_notarget_correct_or_pressloc4_
10	1	6	122	2	1	1	0	2	0	1	612110102	block6_	disappearance_	shape2_	black_	clockwise_	loc2_	notarget_	correct_or_press	block6_disappearance_shape2_black_clockwise_notarget_correct_or_pressloc2_
11	1	6	101	1	1	2	0	1	0	1	611120101	block6_	disappearance_	shape1_	black_	counterclockwise_	loc1_	notarget_	correct_or_press	block6_disappearance_shape1_black_counterclockwise_notarget_correct_or_pressloc1_
12	1	6	121	2	1	1	0	1	0	1	612110101	block6_	disappearance_	shape2_	black_	clockwise_	loc1_	notarget_	correct_or_press	block6_disappearance_shape2_black_clockwise_notarget_correct_or_pressloc1_
13	1	6	117	2	1	2	0	1	0	1	612120101	block6_	disappearance_	shape2_	black_	counterclockwise_	loc1_	notarget_	correct_or_press	block6_disappearance_shape2_black_counterclockwise_notarget_correct_or_pressloc1_
14	1	6	102	1	1	2	0	2	0	1	611120102	block6_	disappearance_	shape1_	black_	counterclockwise_	loc2_	notarget_	correct_or_press	block6_disappearance_shape1_black_counterclockwise_notarget_correct_or_pressloc2_
15	1	6	127	2	2	2	0	3	0	1	612220103	block6_	disappearance_	shape2_	white_	counterclockwise_	loc3_	notarget_	correct_or_press	block6_disappearance_shape2_white_counterclockwise_notarget_correct_or_pressloc3_
16	1	6	125	2	2	2	0	1	0	1	612220101	block6_	disappearance_	shape2_	white_	counterclockwise_	loc1_	notarget_	correct_or_press	block6_disappearance_shape2_white_counterclockwise_notarget_correct_or_pressloc1_
17	1	6	103	1	1	2	0	3	0	1	611120103	block6_	disappearance_	shape1_	black_	counterclockwise_	loc3_	notarget_	correct_or_press	block6_disappearance_shape1_black_counterclockwise_notarget_correct_or_pressloc3_
18	1	6	113	1	2	1	1	1	14	1	611211101	block6_	disappearance_	shape1_	white_	clockwise_	loc1_	istarget_	correct_or_press	block6_disappearance_shape1_white_clockwise_istarget_correct_or_pressloc1_
19	1	6	116	1	2	1	0	4	0	1	611210104	block6_	disappearance_	shape1_	white_	clockwise_	loc4_	notarget_	correct_or_press	block6_disappearance_shape1_white_clockwise_notarget_correct_or_pressloc4_
20	1	6	106	1	1	1	0	2	0	1	611110102	block6_	disappearance_	shape1_	black_	clockwise_	loc2_	notarget_	correct_or_press	block6_disappearance_shape1_black_clockwise_notarget_correct_or_pressloc2_
21	1	6	130	2	2	1	0	2	0	1	612210102	block6_	disappearance_	shape2_	white_	clockwise_	loc2_	notarget_	correct_or_press	block6_disappearance_shape2_white_clockwise_notarget_correct_or_pressloc2_
22	1	6	102	1	1	2	0	2	0	1	611120102	block6_	disappearance_	shape1_	black_	counterclockwise_	loc2_	notarget_	correct_or_press	block6_disappearance_shape1_black_counterclockwise_notarget_correct_or_pressloc2_
23	1	6	127	2	2	2	0	3	0	1	612220103	block6_	disappearance_	shape2_	white_	counterclockwise_	loc3_	notarget_	correct_or_press	block6_disappearance_shape2_white_counterclockwise_notarget_correct_or_pressloc3_
24	1	6	120	2	1	2	0	4	0	1	612120104	block6_	disappearance_	shape2_	black_	counterclockwise_	loc4_	notarget_	correct_or_press	block6_disappearance_shape2_black_counterclockwise_notarget_correct_or_pressloc4_
25	1	6	131	2	2	1	0	3	0	1	612210103	block6_	disappearance_	shape2_	white_	clockwise_	loc3_	notarget_	correct_or_press	block6_disappearance_shape2_white_clockwise_notarget_correct_or_pressloc3_
26	1	6	125	2	2	2	1	1	14	1	612221101	block6_	disappearance_	shape2_	white_	counterclockwise_	loc1_	istarget_	correct_or_press	block6_disappearance_shape2_white_counterclockwise_istarget_correct_or_pressloc1_
27	1	6	104	1	1	2	0	4	0	1	611120104	block6_	disappearance_	shape1_	black_	counterclockwise_	loc4_	notarget_	correct_or_press	block6_disappearance_shape1_black_counterclockwise_notarget_correct_or_pressloc4_
28	1	6	115	1	2	1	0	3	0	1	611210103	block6_	disappearance_	shape1_	white_	clockwise_	loc3_	notarget_	correct_or_press	block6_disappearance_shape1_white_clockwise_notarget_correct_or_pressloc3_
29	1	6	116	1	2	1	0	4	0	1	611210104	block6_	disappearance_	shape1_	white_	clockwise_	loc4_	notarget_	correct_or_press	block6_disappearance_shape1_white_clockwise_notarget_correct_or_pressloc4_
30	1	6	112	1	2	2	0	4	0	1	611220104	block6_	disappearance_	shape1_	white_	counterclockwise_	loc4_	notarget_	correct_or_press	block6_disappearance_shape1_white_counterclockwise_notarget_correct_or_pressloc4_
31	1	6	132	2	2	1	1	4	17	0	612211004	block6_	disappearance_	shape2_	white_	clockwise_	loc4_	istarget_	incorrect_or_nopress	block6_disappearance_shape2_white_clockwise_istarget_incorrect_or_nopressloc4_
32	1	6	124	2	1	1	0	4	0	1	612110104	block6_	disappearance_	shape2_	black_	clockwise_	loc4_	notarget_	correct_or_press	block6_disappearance_shape2_black_clockwise_notarget_correct_or_pressloc4_
33	1	6	112	1	2	2	0	4	0	1	611220104	block6_	disappearance_	shape1_	white_	counterclockwise_	loc4_	notarget_	correct_or_press	block6_disappearance_shape1_white_counterclockwise_notarget_correct_or_pressloc4_
34	1	6	121	2	1	1	0	1	0	1	612110101	block6_	disappearance_	shape2_	black_	clockwise_	loc1_	notarget_	correct_or_press	block6_disappearance_shape2_black_clockwise_notarget_correct_or_pressloc1_
35	1	6	123	2	1	1	1	3	19	1	612111103	block6_	disappearance_	shape2_	black_	clockwise_	loc3_	istarget_	correct_or_press	block6_disappearance_shape2_black_clockwise_istarget_correct_or_pressloc3_
36	1	6	109	1	2	2	0	1	0	1	611220101	block6_	disappearance_	shape1_	white_	counterclockwise_	loc1_	notarget_	correct_or_press	block6_disappearance_shape1_white_counterclockwise_notarget_correct_or_pressloc1_
37	1	6	107	1	1	1	0	3	0	1	611110103	block6_	disappearance_	shape1_	black_	clockwise_	loc3_	notarget_	correct_or_press	block6_disappearance_shape1_black_clockwise_notarget_correct_or_pressloc3_
38	1	6	120	2	1	2	0	4	0	1	612120104	block6_	disappearance_	shape2_	black_	counterclockwise_	loc4_	notarget_	correct_or_press	block6_disappearance_shape2_black_counterclockwise_notarget_correct_or_pressloc4_
39	1	6	116	1	2	1	0	4	0	1	611210104	block6_	disappearance_	shape1_	white_	clockwise_	loc4_	notarget_	correct_or_press	block6_disappearance_shape1_white_clockwise_notarget_correct_or_pressloc4_
40	1	6	110	1	2	2	0	2	0	1	611220102	block6_	disappearance_	shape1_	white_	counterclockwise_	loc2_	notarget_	correct_or_press	block6_disappearance_shape1_white_counterclockwise_notarget_correct_or_pressloc2_
41	1	6	131	2	2	1	1	3	15	1	612211103	block6_	disappearance_	shape2_	white_	clockwise_	loc3_	istarget_	correct_or_press	block6_disappearance_shape2_white_clockwise_istarget_correct_or_pressloc3_
42	1	6	106	1	1	1	0	2	0	1	611110102	block6_	disappearance_	shape1_	black_	clockwise_	loc2_	notarget_	correct_or_press	block6_disappearance_shape1_black_clockwise_notarget_correct_or_pressloc2_
43	1	6	120	2	1	2	0	4	0	1	612120104	block6_	disappearance_	shape2_	black_	counterclockwise_	loc4_	notarget_	correct_or_press	block6_disappearance_shape2_black_counterclockwise_notarget_correct_or_pressloc4_
44	1	6	104	1	1	2	0	4	0	1	611120104	block6_	disappearance_	shape1_	black_	counterclockwise_	loc4_	notarget_	correct_or_press	block6_disappearance_shape1_black_counterclockwise_notarget_correct_or_pressloc4_
45	1	6	101	1	1	2	0	1	0	1	611120101	block6_	disappearance_	shape1_	black_	counterclockwise_	loc1_	notarget_	correct_or_press	block6_disappearance_shape1_black_counterclockwise_notarget_correct_or_pressloc1_
46	1	6	117	2	1	2	0	1	0	1	612120101	block6_	disappearance_	shape2_	black_	counterclockwise_	loc1_	notarget_	correct_or_press	block6_disappearance_shape2_black_counterclockwise_notarget_correct_or_pressloc1_
47	1	6	108	1	1	1	0	4	0	1	611110104	block6_	disappearance_	shape1_	black_	clockwise_	loc4_	notarget_	correct_or_press	block6_disappearance_shape1_black_clockwise_notarget_correct_or_pressloc4_
48	1	6	105	1	1	1	0	1	0	1	611110101	block6_	disappearance_	shape1_	black_	clockwise_	loc1_	notarget_	correct_or_press	block6_disappearance_shape1_black_clockwise_notarget_correct_or_pressloc1_
49	1	6	129	2	2	1	0	1	0	1	612210101	block6_	disappearance_	shape2_	white_	clockwise_	loc1_	notarget_	correct_or_press	block6_disappearance_shape2_white_clockwise_notarget_correct_or_pressloc1_
50	1	6	115	1	2	1	0	3	0	1	611210103	block6_	disappearance_	shape1_	white_	clockwise_	loc3_	notarget_	correct_or_press	block6_disappearance_shape1_white_clockwise_notarget_correct_or_pressloc3_
51	1	6	102	1	1	2	1	2	11	1	611121102	block6_	disappearance_	shape1_	black_	counterclockwise_	loc2_	istarget_	correct_or_press	block6_disappearance_shape1_black_counterclockwise_istarget_correct_or_pressloc2_
52	1	6	128	2	2	2	0	4	0	1	612220104	block6_	disappearance_	shape2_	white_	counterclockwise_	loc4_	notarget_	correct_or_press	block6_disappearance_shape2_white_counterclockwise_notarget_correct_or_pressloc4_
53	1	6	127	2	2	2	0	3	0	1	612220103	block6_	disappearance_	shape2_	white_	counterclockwise_	loc3_	notarget_	correct_or_press	block6_disappearance_shape2_white_counterclockwise_notarget_correct_or_pressloc3_
54	1	6	122	2	1	1	1	2	9	1	612111102	block6_	disappearance_	shape2_	black_	clockwise_	loc2_	istarget_	correct_or_press	block6_disappearance_shape2_black_clockwise_istarget_correct_or_pressloc2_
55	1	6	113	1	2	1	0	1	0	1	611210101	block6_	disappearance_	shape1_	white_	clockwise_	loc1_	notarget_	correct_or_press	block6_disappearance_shape1_white_clockwise_notarget_correct_or_pressloc1_
56	1	6	119	2	1	2	1	3	16	1	612121103	block6_	disappearance_	shape2_	black_	counterclockwise_	loc3_	istarget_	correct_or_press	block6_disappearance_shape2_black_counterclockwise_istarget_correct_or_pressloc3_
57	1	6	101	1	1	2	0	1	0	1	611120101	block6_	disappearance_	shape1_	black_	counterclockwise_	loc1_	notarget_	correct_or_press	block6_disappearance_shape1_black_counterclockwise_notarget_correct_or_pressloc1_
58	1	6	112	1	2	2	0	4	0	0	611220004	block6_	disappearance_	shape1_	white_	counterclockwise_	loc4_	notarget_	incorrect_or_nopress	block6_disappearance_shape1_white_counterclockwise_notarget_incorrect_or_nopressloc4_
59	1	6	118	2	1	2	0	2	0	0	612120002	block6_	disappearance_	shape2_	black_	counterclockwise_	loc2_	notarget_	incorrect_or_nopress	block6_disappearance_shape2_black_counterclockwise_notarget_incorrect_or_nopressloc2_
60	1	6	105	1	1	1	0	1	0	1	611110101	block6_	disappearance_	shape1_	black_	clockwise_	loc1_	notarget_	correct_or_press	block6_disappearance_shape1_black_clockwise_notarget_correct_or_pressloc1_
61	1	6	114	1	2	1	0	2	0	1	611210102	block6_	disappearance_	shape1_	white_	clockwise_	loc2_	notarget_	correct_or_press	block6_disappearance_shape1_white_clockwise_notarget_correct_or_pressloc2_
62	1	6	121	2	1	1	0	1	0	1	612110101	block6_	disappearance_	shape2_	black_	clockwise_	loc1_	notarget_	correct_or_press	block6_disappearance_shape2_black_clockwise_notarget_correct_or_pressloc1_
63	1	6	113	1	2	1	1	1	15	1	611211101	block6_	disappearance_	shape1_	white_	clockwise_	loc1_	istarget_	correct_or_press	block6_disappearance_shape1_white_clockwise_istarget_correct_or_pressloc1_
64	1	6	108	1	1	1	0	4	0	1	611110104	block6_	disappearance_	shape1_	black_	clockwise_	loc4_	notarget_	correct_or_press	block6_disappearance_shape1_black_clockwise_notarget_correct_or_pressloc4_
65	1	6	115	1	2	1	0	3	0	1	611210103	block6_	disappearance_	shape1_	white_	clockwise_	loc3_	notarget_	correct_or_press	block6_disappearance_shape1_white_clockwise_notarget_correct_or_pressloc3_
66	1	6	116	1	2	1	1	4	15	0	611211004	block6_	disappearance_	shape1_	white_	clockwise_	loc4_	istarget_	incorrect_or_nopress	block6_disappearance_shape1_white_clockwise_istarget_incorrect_or_nopressloc4_
67	1	6	111	1	2	2	0	3	0	1	611220103	block6_	disappearance_	shape1_	white_	counterclockwise_	loc3_	notarget_	correct_or_press	block6_disappearance_shape1_white_counterclockwise_notarget_correct_or_pressloc3_
68	1	6	114	1	2	1	1	2	17	1	611211102	block6_	disappearance_	shape1_	white_	clockwise_	loc2_	istarget_	correct_or_press	block6_disappearance_shape1_white_clockwise_istarget_correct_or_pressloc2_
69	1	6	131	2	2	1	0	3	0	1	612210103	block6_	disappearance_	shape2_	white_	clockwise_	loc3_	notarget_	correct_or_press	block6_disappearance_shape2_white_clockwise_notarget_correct_or_pressloc3_
70	1	6	106	1	1	1	0	2	0	1	611110102	block6_	disappearance_	shape1_	black_	clockwise_	loc2_	notarget_	correct_or_press	block6_disappearance_shape1_black_clockwise_notarget_correct_or_pressloc2_
71	1	6	124	2	1	1	0	4	0	1	612110104	block6_	disappearance_	shape2_	black_	clockwise_	loc4_	notarget_	correct_or_press	block6_disappearance_shape2_black_clockwise_notarget_correct_or_pressloc4_
72	1	6	129	2	2	1	0	1	0	1	612210101	block6_	disappearance_	shape2_	white_	clockwise_	loc1_	notarget_	correct_or_press	block6_disappearance_shape2_white_clockwise_notarget_correct_or_pressloc1_
73	1	6	129	2	2	1	1	1	16	1	612211101	block6_	disappearance_	shape2_	white_	clockwise_	loc1_	istarget_	correct_or_press	block6_disappearance_shape2_white_clockwise_istarget_correct_or_pressloc1_
74	1	6	125	2	2	2	0	1	0	1	612220101	block6_	disappearance_	shape2_	white_	counterclockwise_	loc1_	notarget_	correct_or_press	block6_disappearance_shape2_white_counterclockwise_notarget_correct_or_pressloc1_
75	1	6	118	2	1	2	0	2	0	1	612120102	block6_	disappearance_	shape2_	black_	counterclockwise_	loc2_	notarget_	correct_or_press	block6_disappearance_shape2_black_counterclockwise_notarget_correct_or_pressloc2_
76	1	6	105	1	1	1	0	1	0	1	611110101	block6_	disappearance_	shape1_	black_	clockwise_	loc1_	notarget_	correct_or_press	block6_disappearance_shape1_black_clockwise_notarget_correct_or_pressloc1_
77	1	6	123	2	1	1	0	3	0	1	612110103	block6_	disappearance_	shape2_	black_	clockwise_	loc3_	notarget_	correct_or_press	block6_disappearance_shape2_black_clockwise_notarget_correct_or_pressloc3_
78	1	6	110	1	2	2	0	2	0	1	611220102	block6_	disappearance_	shape1_	white_	counterclockwise_	loc2_	notarget_	correct_or_press	block6_disappearance_shape1_white_counterclockwise_notarget_correct_or_pressloc2_
79	1	6	126	2	2	2	1	2	17	0	612221002	block6_	disappearance_	shape2_	white_	counterclockwise_	loc2_	istarget_	incorrect_or_nopress	block6_disappearance_shape2_white_counterclockwise_istarget_incorrect_or_nopressloc2_
80	1	6	120	2	1	2	1	4	17	1	612121104	block6_	disappearance_	shape2_	black_	counterclockwise_	loc4_	istarget_	correct_or_press	block6_disappearance_shape2_black_counterclockwise_istarget_correct_or_pressloc4_
81	1	6	129	2	2	1	0	1	0	1	612210101	block6_	disappearance_	shape2_	white_	clockwise_	loc1_	notarget_	correct_or_press	block6_disappearance_shape2_white_clockwise_notarget_correct_or_pressloc1_
82	1	6	111	1	2	2	0	3	0	1	611220103	block6_	disappearance_	shape1_	white_	counterclockwise_	loc3_	notarget_	correct_or_press	block6_disappearance_shape1_white_counterclockwise_notarget_correct_or_pressloc3_
83	1	6	131	2	2	1	0	3	0	0	612210003	block6_	disappearance_	shape2_	white_	clockwise_	loc3_	notarget_	incorrect_or_nopress	block6_disappearance_shape2_white_clockwise_notarget_incorrect_or_nopressloc3_
84	1	6	103	1	1	2	0	3	0	1	611120103	block6_	disappearance_	shape1_	black_	counterclockwise_	loc3_	notarget_	correct_or_press	block6_disappearance_shape1_black_counterclockwise_notarget_correct_or_pressloc3_
85	1	6	130	2	2	1	1	2	19	1	612211102	block6_	disappearance_	shape2_	white_	clockwise_	loc2_	istarget_	correct_or_press	block6_disappearance_shape2_white_clockwise_istarget_correct_or_pressloc2_
86	1	6	124	2	1	1	0	4	0	1	612110104	block6_	disappearance_	shape2_	black_	clockwise_	loc4_	notarget_	correct_or_press	block6_disappearance_shape2_black_clockwise_notarget_correct_or_pressloc4_
87	1	6	114	1	2	1	0	2	0	1	611210102	block6_	disappearance_	shape1_	white_	clockwise_	loc2_	notarget_	correct_or_press	block6_disappearance_shape1_white_clockwise_notarget_correct_or_pressloc2_
88	1	6	119	2	1	2	0	3	0	1	612120103	block6_	disappearance_	shape2_	black_	counterclockwise_	loc3_	notarget_	correct_or_press	block6_disappearance_shape2_black_counterclockwise_notarget_correct_or_pressloc3_
89	1	6	132	2	2	1	0	4	0	1	612210104	block6_	disappearance_	shape2_	white_	clockwise_	loc4_	notarget_	correct_or_press	block6_disappearance_shape2_white_clockwise_notarget_correct_or_pressloc4_
90	1	6	128	2	2	2	0	4	0	1	612220104	block6_	disappearance_	shape2_	white_	counterclockwise_	loc4_	notarget_	correct_or_press	block6_disappearance_shape2_white_counterclockwise_notarget_correct_or_pressloc4_
91	1	6	132	2	2	1	0	4	0	1	612210104	block6_	disappearance_	shape2_	white_	clockwise_	loc4_	notarget_	correct_or_press	block6_disappearance_shape2_white_clockwise_notarget_correct_or_pressloc4_
92	1	6	103	1	1	2	0	3	0	1	611120103	block6_	disappearance_	shape1_	black_	counterclockwise_	loc3_	notarget_	correct_or_press	block6_disappearance_shape1_black_counterclockwise_notarget_correct_or_pressloc3_
93	1	6	126	2	2	2	0	2	0	1	612220102	block6_	disappearance_	shape2_	white_	counterclockwise_	loc2_	notarget_	correct_or_press	block6_disappearance_shape2_white_counterclockwise_notarget_correct_or_pressloc2_
94	1	6	126	2	2	2	0	2	0	1	612220102	block6_	disappearance_	shape2_	white_	counterclockwise_	loc2_	notarget_	correct_or_press	block6_disappearance_shape2_white_counterclockwise_notarget_correct_or_pressloc2_
95	1	6	125	2	2	2	0	1	0	1	612220101	block6_	disappearance_	shape2_	white_	counterclockwise_	loc1_	notarget_	correct_or_press	block6_disappearance_shape2_white_counterclockwise_notarget_correct_or_pressloc1_
96	1	6	132	2	2	1	0	4	0	1	612210104	block6_	disappearance_	shape2_	white_	clockwise_	loc4_	notarget_	correct_or_press	block6_disappearance_shape2_white_clockwise_notarget_correct_or_pressloc4_
97	1	6	130	2	2	1	0	2	0	1	612210102	block6_	disappearance_	shape2_	white_	clockwise_	loc2_	notarget_	correct_or_press	block6_disappearance_shape2_white_clockwise_notarget_correct_or_pressloc2_
98	1	6	107	1	1	1	0	3	0	1	611110103	block6_	disappearance_	shape1_	black_	clockwise_	loc3_	notarget_	correct_or_press	block6_disappearance_shape1_black_clockwise_notarget_correct_or_pressloc3_
99	1	6	107	1	1	1	0	3	0	1	611110103	block6_	disappearance_	shape1_	black_	clockwise_	loc3_	notarget_	correct_or_press	block6_disappearance_shape1_black_clockwise_notarget_correct_or_pressloc3_
100	1	6	126	2	2	2	0	2	0	1	612220102	block6_	disappearance_	shape2_	white_	counterclockwise_	loc2_	notarget_	correct_or_press	block6_disappearance_shape2_white_counterclockwise_notarget_correct_or_pressloc2_
101	1	6	108	1	1	1	0	4	0	1	611110104	block6_	disappearance_	shape1_	black_	clockwise_	loc4_	notarget_	correct_or_press	block6_disappearance_shape1_black_clockwise_notarget_correct_or_pressloc4_
102	1	6	110	1	2	2	1	2	12	0	611221002	block6_	disappearance_	shape1_	white_	counterclockwise_	loc2_	istarget_	incorrect_or_nopress	block6_disappearance_shape1_white_counterclockwise_istarget_incorrect_or_nopressloc2_
103	1	6	109	1	2	2	0	1	0	1	611220101	block6_	disappearance_	shape1_	white_	counterclockwise_	loc1_	notarget_	correct_or_press	block6_disappearance_shape1_white_counterclockwise_notarget_correct_or_pressloc1_
104	1	6	117	2	1	2	1	1	18	1	612121101	block6_	disappearance_	shape2_	black_	counterclockwise_	loc1_	istarget_	correct_or_press	block6_disappearance_shape2_black_counterclockwise_istarget_correct_or_pressloc1_
105	1	6	130	2	2	1	0	2	0	1	612210102	block6_	disappearance_	shape2_	white_	clockwise_	loc2_	notarget_	correct_or_press	block6_disappearance_shape2_white_clockwise_notarget_correct_or_pressloc2_
106	1	6	109	1	2	2	0	1	0	1	611220101	block6_	disappearance_	shape1_	white_	counterclockwise_	loc1_	notarget_	correct_or_press	block6_disappearance_shape1_white_counterclockwise_notarget_correct_or_pressloc1_
107	1	6	119	2	1	2	0	3	0	1	612120103	block6_	disappearance_	shape2_	black_	counterclockwise_	loc3_	notarget_	correct_or_press	block6_disappearance_shape2_black_counterclockwise_notarget_correct_or_pressloc3_
108	1	6	122	2	1	1	0	2	0	1	612110102	block6_	disappearance_	shape2_	black_	clockwise_	loc2_	notarget_	correct_or_press	block6_disappearance_shape2_black_clockwise_notarget_correct_or_pressloc2_
109	1	6	113	1	2	1	0	1	0	1	611210101	block6_	disappearance_	shape1_	white_	clockwise_	loc1_	notarget_	correct_or_press	block6_disappearance_shape1_white_clockwise_notarget_correct_or_pressloc1_
110	1	6	113	1	2	1	0	1	0	1	611210101	block6_	disappearance_	shape1_	white_	clockwise_	loc1_	notarget_	correct_or_press	block6_disappearance_shape1_white_clockwise_notarget_correct_or_pressloc1_
111	1	6	123	2	1	1	0	3	0	1	612110103	block6_	disappearance_	shape2_	black_	clockwise_	loc3_	notarget_	correct_or_press	block6_disappearance_shape2_black_clockwise_notarget_correct_or_pressloc3_
112	1	6	111	1	2	2	0	3	0	1	611220103	block6_	disappearance_	shape1_	white_	counterclockwise_	loc3_	notarget_	correct_or_press	block6_disappearance_shape1_white_counterclockwise_notarget_correct_or_pressloc3_
113	2	6	245	2	2	0	2	45	2	0	622202045	block6_	flicker_	shape2_	white_	counterclockwise_	loc45_	padding_	incorrect_or_nopress	block6_flicker_shape2_white_counterclockwise_padding_incorrect_or_nopressloc45_
114	2	6	217	1	1	0	0	17	0	0	621100017	block6_	flicker_	shape1_	black_	counterclockwise_	loc17_	notarget_	incorrect_or_nopress	block6_flicker_shape1_black_counterclockwise_notarget_incorrect_or_nopressloc17_
115	2	6	218	2	2	0	0	18	0	0	622200018	block6_	flicker_	shape2_	white_	counterclockwise_	loc18_	notarget_	incorrect_or_nopress	block6_flicker_shape2_white_counterclockwise_notarget_incorrect_or_nopressloc18_
116	2	6	234	2	2	0	0	34	0	0	622200034	block6_	flicker_	shape2_	white_	counterclockwise_	loc34_	notarget_	incorrect_or_nopress	block6_flicker_shape2_white_counterclockwise_notarget_incorrect_or_nopressloc34_
117	2	6	204	2	2	0	0	4	0	0	622200004	block6_	flicker_	shape2_	white_	counterclockwise_	loc4_	notarget_	incorrect_or_nopress	block6_flicker_shape2_white_counterclockwise_notarget_incorrect_or_nopressloc4_
118	2	6	224	1	1	0	0	24	0	0	621100024	block6_	flicker_	shape1_	black_	counterclockwise_	loc24_	notarget_	incorrect_or_nopress	block6_flicker_shape1_black_counterclockwise_notarget_incorrect_or_nopressloc24_
119	2	6	251	2	2	0	0	51	0	0	622200051	block6_	flicker_	shape2_	white_	counterclockwise_	loc51_	notarget_	incorrect_or_nopress	block6_flicker_shape2_white_counterclockwise_notarget_incorrect_or_nopressloc51_
120	2	6	244	2	1	0	0	44	0	0	622100044	block6_	flicker_	shape2_	black_	counterclockwise_	loc44_	notarget_	incorrect_or_nopress	block6_flicker_shape2_black_counterclockwise_notarget_incorrect_or_nopressloc44_
121	2	6	238	2	2	0	0	38	0	0	622200038	block6_	flicker_	shape2_	white_	counterclockwise_	loc38_	notarget_	incorrect_or_nopress	block6_flicker_shape2_white_counterclockwise_notarget_incorrect_or_nopressloc38_
122	2	6	248	1	1	0	0	48	0	0	621100048	block6_	flicker_	shape1_	black_	counterclockwise_	loc48_	notarget_	incorrect_or_nopress	block6_flicker_shape1_black_counterclockwise_notarget_incorrect_or_nopressloc48_
123	2	6	259	1	2	0	0	59	0	0	621200059	block6_	flicker_	shape1_	white_	counterclockwise_	loc59_	notarget_	incorrect_or_nopress	block6_flicker_shape1_white_counterclockwise_notarget_incorrect_or_nopressloc59_
124	2	6	223	2	1	0	0	23	0	0	622100023	block6_	flicker_	shape2_	black_	counterclockwise_	loc23_	notarget_	incorrect_or_nopress	block6_flicker_shape2_black_counterclockwise_notarget_incorrect_or_nopressloc23_
125	2	6	210	1	1	0	0	10	0	0	621100010	block6_	flicker_	shape1_	black_	counterclockwise_	loc10_	notarget_	incorrect_or_nopress	block6_flicker_shape1_black_counterclockwise_notarget_incorrect_or_nopressloc10_
126	2	6	224	2	1	0	0	24	0	0	622100024	block6_	flicker_	shape2_	black_	counterclockwise_	loc24_	notarget_	incorrect_or_nopress	block6_flicker_shape2_black_counterclockwise_notarget_incorrect_or_nopressloc24_
127	2	6	230	1	1	0	0	30	0	0	621100030	block6_	flicker_	shape1_	black_	counterclockwise_	loc30_	notarget_	incorrect_or_nopress	block6_flicker_shape1_black_counterclockwise_notarget_incorrect_or_nopressloc30_
128	2	6	249	1	2	0	0	49	0	0	621200049	block6_	flicker_	shape1_	white_	counterclockwise_	loc49_	notarget_	incorrect_or_nopress	block6_flicker_shape1_white_counterclockwise_notarget_incorrect_or_nopressloc49_
129	2	6	255	1	1	0	0	55	0	0	621100055	block6_	flicker_	shape1_	black_	counterclockwise_	loc55_	notarget_	incorrect_or_nopress	block6_flicker_shape1_black_counterclockwise_notarget_incorrect_or_nopressloc55_
130	2	6	254	2	1	0	2	54	2	0	622102054	block6_	flicker_	shape2_	black_	counterclockwise_	loc54_	padding_	incorrect_or_nopress	block6_flicker_shape2_black_counterclockwise_padding_incorrect_or_nopressloc54_
131	2	6	242	1	2	0	2	42	2	0	621202042	block6_	flicker_	shape1_	white_	counterclockwise_	loc42_	padding_	incorrect_or_nopress	block6_flicker_shape1_white_counterclockwise_padding_incorrect_or_nopressloc42_
132	2	6	213	1	2	0	2	13	2	0	621202013	block6_	flicker_	shape1_	white_	counterclockwise_	loc13_	padding_	incorrect_or_nopress	block6_flicker_shape1_white_counterclockwise_padding_incorrect_or_nopressloc13_
133	2	6	238	1	1	0	2	38	2	0	621102038	block6_	flicker_	shape1_	black_	counterclockwise_	loc38_	padding_	incorrect_or_nopress	block6_flicker_shape1_black_counterclockwise_padding_incorrect_or_nopressloc38_
134	2	6	245	1	2	0	2	45	2	0	621202045	block6_	flicker_	shape1_	white_	counterclockwise_	loc45_	padding_	incorrect_or_nopress	block6_flicker_shape1_white_counterclockwise_padding_incorrect_or_nopressloc45_
135	2	6	229	2	2	0	2	29	2	0	622202029	block6_	flicker_	shape2_	white_	counterclockwise_	loc29_	padding_	incorrect_or_nopress	block6_flicker_shape2_white_counterclockwise_padding_incorrect_or_nopressloc29_
136	2	6	251	1	1	0	2	51	2	0	621102051	block6_	flicker_	shape1_	black_	counterclockwise_	loc51_	padding_	incorrect_or_nopress	block6_flicker_shape1_black_counterclockwise_padding_incorrect_or_nopressloc51_
137	2	6	211	2	1	0	1	11	1	0	622101011	block6_	flicker_	shape2_	black_	counterclockwise_	loc11_	istarget_	incorrect_or_nopress	block6_flicker_shape2_black_counterclockwise_istarget_incorrect_or_nopressloc11_
138	2	6	261	1	1	0	2	61	2	0	621102061	block6_	flicker_	shape1_	black_	counterclockwise_	loc61_	padding_	incorrect_or_nopress	block6_flicker_shape1_black_counterclockwise_padding_incorrect_or_nopressloc61_
139	2	6	224	1	1	0	2	24	2	0	621102024	block6_	flicker_	shape1_	black_	counterclockwise_	loc24_	padding_	incorrect_or_nopress	block6_flicker_shape1_black_counterclockwise_padding_incorrect_or_nopressloc24_
140	2	6	206	2	2	0	2	6	2	1	622202106	block6_	flicker_	shape2_	white_	counterclockwise_	loc6_	padding_	correct_or_press	block6_flicker_shape2_white_counterclockwise_padding_correct_or_pressloc6_
141	2	6	227	1	2	0	2	27	2	1	621202127	block6_	flicker_	shape1_	white_	counterclockwise_	loc27_	padding_	correct_or_press	block6_flicker_shape1_white_counterclockwise_padding_correct_or_pressloc27_
142	2	6	256	2	1	0	2	56	2	0	622102056	block6_	flicker_	shape2_	black_	counterclockwise_	loc56_	padding_	incorrect_or_nopress	block6_flicker_shape2_black_counterclockwise_padding_incorrect_or_nopressloc56_
143	2	6	259	2	2	0	2	59	2	0	622202059	block6_	flicker_	shape2_	white_	counterclockwise_	loc59_	padding_	incorrect_or_nopress	block6_flicker_shape2_white_counterclockwise_padding_incorrect_or_nopressloc59_
144	2	6	208	2	2	0	2	8	2	0	622202008	block6_	flicker_	shape2_	white_	counterclockwise_	loc8_	padding_	incorrect_or_nopress	block6_flicker_shape2_white_counterclockwise_padding_incorrect_or_nopressloc8_
145	2	6	228	2	1	0	2	28	2	0	622102028	block6_	flicker_	shape2_	black_	counterclockwise_	loc28_	padding_	incorrect_or_nopress	block6_flicker_shape2_black_counterclockwise_padding_incorrect_or_nopressloc28_
146	2	6	255	1	2	0	0	55	0	0	621200055	block6_	flicker_	shape1_	white_	counterclockwise_	loc55_	notarget_	incorrect_or_nopress	block6_flicker_shape1_white_counterclockwise_notarget_incorrect_or_nopressloc55_
147	2	6	222	1	1	0	0	22	0	0	621100022	block6_	flicker_	shape1_	black_	counterclockwise_	loc22_	notarget_	incorrect_or_nopress	block6_flicker_shape1_black_counterclockwise_notarget_incorrect_or_nopressloc22_
148	2	6	250	2	2	0	0	50	0	0	622200050	block6_	flicker_	shape2_	white_	counterclockwise_	loc50_	notarget_	incorrect_or_nopress	block6_flicker_shape2_white_counterclockwise_notarget_incorrect_or_nopressloc50_
149	2	6	256	1	2	0	0	56	0	0	621200056	block6_	flicker_	shape1_	white_	counterclockwise_	loc56_	notarget_	incorrect_or_nopress	block6_flicker_shape1_white_counterclockwise_notarget_incorrect_or_nopressloc56_
150	2	6	256	2	2	0	0	56	0	0	622200056	block6_	flicker_	shape2_	white_	counterclockwise_	loc56_	notarget_	incorrect_or_nopress	block6_flicker_shape2_white_counterclockwise_notarget_incorrect_or_nopressloc56_
151	2	6	216	2	1	0	0	16	0	0	622100016	block6_	flicker_	shape2_	black_	counterclockwise_	loc16_	notarget_	incorrect_or_nopress	block6_flicker_shape2_black_counterclockwise_notarget_incorrect_or_nopressloc16_
152	2	6	235	2	1	0	0	35	0	0	622100035	block6_	flicker_	shape2_	black_	counterclockwise_	loc35_	notarget_	incorrect_or_nopress	block6_flicker_shape2_black_counterclockwise_notarget_incorrect_or_nopressloc35_
153	2	6	241	2	1	0	0	41	0	0	622100041	block6_	flicker_	shape2_	black_	counterclockwise_	loc41_	notarget_	incorrect_or_nopress	block6_flicker_shape2_black_counterclockwise_notarget_incorrect_or_nopressloc41_
154	2	6	252	1	1	0	0	52	0	0	621100052	block6_	flicker_	shape1_	black_	counterclockwise_	loc52_	notarget_	incorrect_or_nopress	block6_flicker_shape1_black_counterclockwise_notarget_incorrect_or_nopressloc52_
155	2	6	231	2	1	0	0	31	0	0	622100031	block6_	flicker_	shape2_	black_	counterclockwise_	loc31_	notarget_	incorrect_or_nopress	block6_flicker_shape2_black_counterclockwise_notarget_incorrect_or_nopressloc31_
156	2	6	236	1	1	0	0	36	0	0	621100036	block6_	flicker_	shape1_	black_	counterclockwise_	loc36_	notarget_	incorrect_or_nopress	block6_flicker_shape1_black_counterclockwise_notarget_incorrect_or_nopressloc36_
157	2	6	221	1	1	0	0	21	0	0	621100021	block6_	flicker_	shape1_	black_	counterclockwise_	loc21_	notarget_	incorrect_or_nopress	block6_flicker_shape1_black_counterclockwise_notarget_incorrect_or_nopressloc21_
158	2	6	207	2	1	0	0	7	0	0	622100007	block6_	flicker_	shape2_	black_	counterclockwise_	loc7_	notarget_	incorrect_or_nopress	block6_flicker_shape2_black_counterclockwise_notarget_incorrect_or_nopressloc7_
159	2	6	258	2	2	0	0	58	0	0	622200058	block6_	flicker_	shape2_	white_	counterclockwise_	loc58_	notarget_	incorrect_or_nopress	block6_flicker_shape2_white_counterclockwise_notarget_incorrect_or_nopressloc58_
160	2	6	207	2	2	0	0	7	0	0	622200007	block6_	flicker_	shape2_	white_	counterclockwise_	loc7_	notarget_	incorrect_or_nopress	block6_flicker_shape2_white_counterclockwise_notarget_incorrect_or_nopressloc7_
161	2	6	254	1	1	0	0	54	0	0	621100054	block6_	flicker_	shape1_	black_	counterclockwise_	loc54_	notarget_	incorrect_or_nopress	block6_flicker_shape1_black_counterclockwise_notarget_incorrect_or_nopressloc54_
162	2	6	239	1	1	0	0	39	0	0	621100039	block6_	flicker_	shape1_	black_	counterclockwise_	loc39_	notarget_	incorrect_or_nopress	block6_flicker_shape1_black_counterclockwise_notarget_incorrect_or_nopressloc39_
163	2	6	243	1	1	0	0	43	0	0	621100043	block6_	flicker_	shape1_	black_	counterclockwise_	loc43_	notarget_	incorrect_or_nopress	block6_flicker_shape1_black_counterclockwise_notarget_incorrect_or_nopressloc43_
164	2	6	202	2	2	0	0	2	0	0	622200002	block6_	flicker_	shape2_	white_	counterclockwise_	loc2_	notarget_	incorrect_or_nopress	block6_flicker_shape2_white_counterclockwise_notarget_incorrect_or_nopressloc2_
165	2	6	249	2	1	0	0	49	0	0	622100049	block6_	flicker_	shape2_	black_	counterclockwise_	loc49_	notarget_	incorrect_or_nopress	block6_flicker_shape2_black_counterclockwise_notarget_incorrect_or_nopressloc49_
166	2	6	259	1	1	0	0	59	0	0	621100059	block6_	flicker_	shape1_	black_	counterclockwise_	loc59_	notarget_	incorrect_or_nopress	block6_flicker_shape1_black_counterclockwise_notarget_incorrect_or_nopressloc59_
167	2	6	205	1	1	0	0	5	0	0	621100005	block6_	flicker_	shape1_	black_	counterclockwise_	loc5_	notarget_	incorrect_or_nopress	block6_flicker_shape1_black_counterclockwise_notarget_incorrect_or_nopressloc5_
168	2	6	259	2	2	0	0	59	0	0	622200059	block6_	flicker_	shape2_	white_	counterclockwise_	loc59_	notarget_	incorrect_or_nopress	block6_flicker_shape2_white_counterclockwise_notarget_incorrect_or_nopressloc59_
169	2	6	229	1	1	0	0	29	0	0	621100029	block6_	flicker_	shape1_	black_	counterclockwise_	loc29_	notarget_	incorrect_or_nopress	block6_flicker_shape1_black_counterclockwise_notarget_incorrect_or_nopressloc29_
170	2	6	237	1	2	0	0	37	0	0	621200037	block6_	flicker_	shape1_	white_	counterclockwise_	loc37_	notarget_	incorrect_or_nopress	block6_flicker_shape1_white_counterclockwise_notarget_incorrect_or_nopressloc37_
171	2	6	206	1	2	0	0	6	0	0	621200006	block6_	flicker_	shape1_	white_	counterclockwise_	loc6_	notarget_	incorrect_or_nopress	block6_flicker_shape1_white_counterclockwise_notarget_incorrect_or_nopressloc6_
172	2	6	214	2	1	0	0	14	0	0	622100014	block6_	flicker_	shape2_	black_	counterclockwise_	loc14_	notarget_	incorrect_or_nopress	block6_flicker_shape2_black_counterclockwise_notarget_incorrect_or_nopressloc14_
173	2	6	217	1	2	0	0	17	0	0	621200017	block6_	flicker_	shape1_	white_	counterclockwise_	loc17_	notarget_	incorrect_or_nopress	block6_flicker_shape1_white_counterclockwise_notarget_incorrect_or_nopressloc17_
174	2	6	225	2	1	0	0	25	0	0	622100025	block6_	flicker_	shape2_	black_	counterclockwise_	loc25_	notarget_	incorrect_or_nopress	block6_flicker_shape2_black_counterclockwise_notarget_incorrect_or_nopressloc25_
175	2	6	208	2	2	0	0	8	0	0	622200008	block6_	flicker_	shape2_	white_	counterclockwise_	loc8_	notarget_	incorrect_or_nopress	block6_flicker_shape2_white_counterclockwise_notarget_incorrect_or_nopressloc8_
176	2	6	242	2	2	0	0	42	0	0	622200042	block6_	flicker_	shape2_	white_	counterclockwise_	loc42_	notarget_	incorrect_or_nopress	block6_flicker_shape2_white_counterclockwise_notarget_incorrect_or_nopressloc42_
177	2	6	223	1	2	0	0	23	0	0	621200023	block6_	flicker_	shape1_	white_	counterclockwise_	loc23_	notarget_	incorrect_or_nopress	block6_flicker_shape1_white_counterclockwise_notarget_incorrect_or_nopressloc23_
178	2	6	263	2	2	0	0	63	0	0	622200063	block6_	flicker_	shape2_	white_	counterclockwise_	loc63_	notarget_	incorrect_or_nopress	block6_flicker_shape2_white_counterclockwise_notarget_incorrect_or_nopressloc63_
179	2	6	230	2	2	0	0	30	0	0	622200030	block6_	flicker_	shape2_	white_	counterclockwise_	loc30_	notarget_	incorrect_or_nopress	block6_flicker_shape2_white_counterclockwise_notarget_incorrect_or_nopressloc30_
180	2	6	258	1	2	0	0	58	0	0	621200058	block6_	flicker_	shape1_	white_	counterclockwise_	loc58_	notarget_	incorrect_or_nopress	block6_flicker_shape1_white_counterclockwise_notarget_incorrect_or_nopressloc58_
181	2	6	201	1	1	0	0	1	0	0	621100001	block6_	flicker_	shape1_	black_	counterclockwise_	loc1_	notarget_	incorrect_or_nopress	block6_flicker_shape1_black_counterclockwise_notarget_incorrect_or_nopressloc1_
182	2	6	250	2	1	0	0	50	0	0	622100050	block6_	flicker_	shape2_	black_	counterclockwise_	loc50_	notarget_	incorrect_or_nopress	block6_flicker_shape2_black_counterclockwise_notarget_incorrect_or_nopressloc50_
183	2	6	252	2	2	0	0	52	0	0	622200052	block6_	flicker_	shape2_	white_	counterclockwise_	loc52_	notarget_	incorrect_or_nopress	block6_flicker_shape2_white_counterclockwise_notarget_incorrect_or_nopressloc52_
184	2	6	239	2	1	0	0	39	0	0	622100039	block6_	flicker_	shape2_	black_	counterclockwise_	loc39_	notarget_	incorrect_or_nopress	block6_flicker_shape2_black_counterclockwise_notarget_incorrect_or_nopressloc39_
185	2	6	245	1	1	0	0	45	0	0	621100045	block6_	flicker_	shape1_	black_	counterclockwise_	loc45_	notarget_	incorrect_or_nopress	block6_flicker_shape1_black_counterclockwise_notarget_incorrect_or_nopressloc45_
186	2	6	220	2	2	0	0	20	0	0	622200020	block6_	flicker_	shape2_	white_	counterclockwise_	loc20_	notarget_	incorrect_or_nopress	block6_flicker_shape2_white_counterclockwise_notarget_incorrect_or_nopressloc20_
187	2	6	240	1	1	0	0	40	0	0	621100040	block6_	flicker_	shape1_	black_	counterclockwise_	loc40_	notarget_	incorrect_or_nopress	block6_flicker_shape1_black_counterclockwise_notarget_incorrect_or_nopressloc40_
188	2	6	235	2	2	0	0	35	0	0	622200035	block6_	flicker_	shape2_	white_	counterclockwise_	loc35_	notarget_	incorrect_or_nopress	block6_flicker_shape2_white_counterclockwise_notarget_incorrect_or_nopressloc35_
189	2	6	227	2	2	0	0	27	0	0	622200027	block6_	flicker_	shape2_	white_	counterclockwise_	loc27_	notarget_	incorrect_or_nopress	block6_flicker_shape2_white_counterclockwise_notarget_incorrect_or_nopressloc27_
190	2	6	242	1	2	0	0	42	0	0	621200042	block6_	flicker_	shape1_	white_	counterclockwise_	loc42_	notarget_	incorrect_or_nopress	block6_flicker_shape1_white_counterclockwise_notarget_incorrect_or_nopressloc42_
191	2	6	203	1	2	0	0	3	0	0	621200003	block6_	flicker_	shape1_	white_	counterclockwise_	loc3_	notarget_	incorrect_or_nopress	block6_flicker_shape1_white_counterclockwise_notarget_incorrect_or_nopressloc3_
192	2	6	232	2	2	0	0	32	0	0	622200032	block6_	flicker_	shape2_	white_	counterclockwise_	loc32_	notarget_	incorrect_or_nopress	block6_flicker_shape2_white_counterclockwise_notarget_incorrect_or_nopressloc32_
193	2	6	212	2	1	0	0	12	0	0	622100012	block6_	flicker_	shape2_	black_	counterclockwise_	loc12_	notarget_	incorrect_or_nopress	block6_flicker_shape2_black_counterclockwise_notarget_incorrect_or_nopressloc12_
194	2	6	223	1	1	0	0	23	0	0	621100023	block6_	flicker_	shape1_	black_	counterclockwise_	loc23_	notarget_	incorrect_or_nopress	block6_flicker_shape1_black_counterclockwise_notarget_incorrect_or_nopressloc23_
195	2	6	213	1	2	0	0	13	0	0	621200013	block6_	flicker_	shape1_	white_	counterclockwise_	loc13_	notarget_	incorrect_or_nopress	block6_flicker_shape1_white_counterclockwise_notarget_incorrect_or_nopressloc13_
196	2	6	248	2	2	0	0	48	0	0	622200048	block6_	flicker_	shape2_	white_	counterclockwise_	loc48_	notarget_	incorrect_or_nopress	block6_flicker_shape2_white_counterclockwise_notarget_incorrect_or_nopressloc48_
197	2	6	234	1	1	0	0	34	0	0	621100034	block6_	flicker_	shape1_	black_	counterclockwise_	loc34_	notarget_	incorrect_or_nopress	block6_flicker_shape1_black_counterclockwise_notarget_incorrect_or_nopressloc34_
198	2	6	257	1	2	0	0	57	0	0	621200057	block6_	flicker_	shape1_	white_	counterclockwise_	loc57_	notarget_	incorrect_or_nopress	block6_flicker_shape1_white_counterclockwise_notarget_incorrect_or_nopressloc57_
199	2	6	228	2	1	0	0	28	0	0	622100028	block6_	flicker_	shape2_	black_	counterclockwise_	loc28_	notarget_	incorrect_or_nopress	block6_flicker_shape2_black_counterclockwise_notarget_incorrect_or_nopressloc28_
200	2	6	204	2	1	0	0	4	0	0	622100004	block6_	flicker_	shape2_	black_	counterclockwise_	loc4_	notarget_	incorrect_or_nopress	block6_flicker_shape2_black_counterclockwise_notarget_incorrect_or_nopressloc4_
201	2	6	238	1	1	0	0	38	0	0	621100038	block6_	flicker_	shape1_	black_	counterclockwise_	loc38_	notarget_	incorrect_or_nopress	block6_flicker_shape1_black_counterclockwise_notarget_incorrect_or_nopressloc38_
202	2	6	261	2	1	0	0	61	0	0	622100061	block6_	flicker_	shape2_	black_	counterclockwise_	loc61_	notarget_	incorrect_or_nopress	block6_flicker_shape2_black_counterclockwise_notarget_incorrect_or_nopressloc61_
203	2	6	204	1	1	0	0	4	0	0	621100004	block6_	flicker_	shape1_	black_	counterclockwise_	loc4_	notarget_	incorrect_or_nopress	block6_flicker_shape1_black_counterclockwise_notarget_incorrect_or_nopressloc4_
204	2	6	231	1	1	0	0	31	0	0	621100031	block6_	flicker_	shape1_	black_	counterclockwise_	loc31_	notarget_	incorrect_or_nopress	block6_flicker_shape1_black_counterclockwise_notarget_incorrect_or_nopressloc31_
205	2	6	227	2	1	0	0	27	0	0	622100027	block6_	flicker_	shape2_	black_	counterclockwise_	loc27_	notarget_	incorrect_or_nopress	block6_flicker_shape2_black_counterclockwise_notarget_incorrect_or_nopressloc27_
206	2	6	225	1	1	0	0	25	0	0	621100025	block6_	flicker_	shape1_	black_	counterclockwise_	loc25_	notarget_	incorrect_or_nopress	block6_flicker_shape1_black_counterclockwise_notarget_incorrect_or_nopressloc25_
207	2	6	239	2	2	0	0	39	0	0	622200039	block6_	flicker_	shape2_	white_	counterclockwise_	loc39_	notarget_	incorrect_or_nopress	block6_flicker_shape2_white_counterclockwise_notarget_incorrect_or_nopressloc39_
208	2	6	250	1	2	0	0	50	0	0	621200050	block6_	flicker_	shape1_	white_	counterclockwise_	loc50_	notarget_	incorrect_or_nopress	block6_flicker_shape1_white_counterclockwise_notarget_incorrect_or_nopressloc50_
209	2	6	235	1	1	0	0	35	0	0	621100035	block6_	flicker_	shape1_	black_	counterclockwise_	loc35_	notarget_	incorrect_or_nopress	block6_flicker_shape1_black_counterclockwise_notarget_incorrect_or_nopressloc35_
210	2	6	221	2	1	0	0	21	0	0	622100021	block6_	flicker_	shape2_	black_	counterclockwise_	loc21_	notarget_	incorrect_or_nopress	block6_flicker_shape2_black_counterclockwise_notarget_incorrect_or_nopressloc21_
211	2	6	214	2	2	0	0	14	0	0	622200014	block6_	flicker_	shape2_	white_	counterclockwise_	loc14_	notarget_	incorrect_or_nopress	block6_flicker_shape2_white_counterclockwise_notarget_incorrect_or_nopressloc14_
212	2	6	211	1	2	0	0	11	0	0	621200011	block6_	flicker_	shape1_	white_	counterclockwise_	loc11_	notarget_	incorrect_or_nopress	block6_flicker_shape1_white_counterclockwise_notarget_incorrect_or_nopressloc11_
213	2	6	219	2	1	0	0	19	0	0	622100019	block6_	flicker_	shape2_	black_	counterclockwise_	loc19_	notarget_	incorrect_or_nopress	block6_flicker_shape2_black_counterclockwise_notarget_incorrect_or_nopressloc19_
214	2	6	247	1	2	0	0	47	0	0	621200047	block6_	flicker_	shape1_	white_	counterclockwise_	loc47_	notarget_	incorrect_or_nopress	block6_flicker_shape1_white_counterclockwise_notarget_incorrect_or_nopressloc47_
215	2	6	213	2	1	0	0	13	0	0	622100013	block6_	flicker_	shape2_	black_	counterclockwise_	loc13_	notarget_	incorrect_or_nopress	block6_flicker_shape2_black_counterclockwise_notarget_incorrect_or_nopressloc13_
216	2	6	237	1	1	0	0	37	0	0	621100037	block6_	flicker_	shape1_	black_	counterclockwise_	loc37_	notarget_	incorrect_or_nopress	block6_flicker_shape1_black_counterclockwise_notarget_incorrect_or_nopressloc37_
217	2	6	233	1	1	0	0	33	0	0	621100033	block6_	flicker_	shape1_	black_	counterclockwise_	loc33_	notarget_	incorrect_or_nopress	block6_flicker_shape1_black_counterclockwise_notarget_incorrect_or_nopressloc33_
218	2	6	247	1	1	0	0	47	0	0	621100047	block6_	flicker_	shape1_	black_	counterclockwise_	loc47_	notarget_	incorrect_or_nopress	block6_flicker_shape1_black_counterclockwise_notarget_incorrect_or_nopressloc47_
219	2	6	241	2	2	0	0	41	0	0	622200041	block6_	flicker_	shape2_	white_	counterclockwise_	loc41_	notarget_	incorrect_or_nopress	block6_flicker_shape2_white_counterclockwise_notarget_incorrect_or_nopressloc41_
220	2	6	218	1	1	0	0	18	0	0	621100018	block6_	flicker_	shape1_	black_	counterclockwise_	loc18_	notarget_	incorrect_or_nopress	block6_flicker_shape1_black_counterclockwise_notarget_incorrect_or_nopressloc18_
221	2	6	243	1	2	0	0	43	0	0	621200043	block6_	flicker_	shape1_	white_	counterclockwise_	loc43_	notarget_	incorrect_or_nopress	block6_flicker_shape1_white_counterclockwise_notarget_incorrect_or_nopressloc43_
222	2	6	245	2	1	0	0	45	0	0	622100045	block6_	flicker_	shape2_	black_	counterclockwise_	loc45_	notarget_	incorrect_or_nopress	block6_flicker_shape2_black_counterclockwise_notarget_incorrect_or_nopressloc45_
223	2	6	250	1	1	0	0	50	0	0	621100050	block6_	flicker_	shape1_	black_	counterclockwise_	loc50_	notarget_	incorrect_or_nopress	block6_flicker_shape1_black_counterclockwise_notarget_incorrect_or_nopressloc50_
224	2	6	236	2	1	0	0	36	0	0	622100036	block6_	flicker_	shape2_	black_	counterclockwise_	loc36_	notarget_	incorrect_or_nopress	block6_flicker_shape2_black_counterclockwise_notarget_incorrect_or_nopressloc36_
225	2	6	215	2	2	0	0	15	0	0	622200015	block6_	flicker_	shape2_	white_	counterclockwise_	loc15_	notarget_	incorrect_or_nopress	block6_flicker_shape2_white_counterclockwise_notarget_incorrect_or_nopressloc15_
226	2	6	225	2	2	0	0	25	0	0	622200025	block6_	flicker_	shape2_	white_	counterclockwise_	loc25_	notarget_	incorrect_or_nopress	block6_flicker_shape2_white_counterclockwise_notarget_incorrect_or_nopressloc25_
227	2	6	219	2	2	0	0	19	0	0	622200019	block6_	flicker_	shape2_	white_	counterclockwise_	loc19_	notarget_	incorrect_or_nopress	block6_flicker_shape2_white_counterclockwise_notarget_incorrect_or_nopressloc19_
228	2	6	245	1	2	0	0	45	0	0	621200045	block6_	flicker_	shape1_	white_	counterclockwise_	loc45_	notarget_	incorrect_or_nopress	block6_flicker_shape1_white_counterclockwise_notarget_incorrect_or_nopressloc45_
229	2	6	251	1	2	0	0	51	0	0	621200051	block6_	flicker_	shape1_	white_	counterclockwise_	loc51_	notarget_	incorrect_or_nopress	block6_flicker_shape1_white_counterclockwise_notarget_incorrect_or_nopressloc51_
230	2	6	232	1	2	0	0	32	0	0	621200032	block6_	flicker_	shape1_	white_	counterclockwise_	loc32_	notarget_	incorrect_or_nopress	block6_flicker_shape1_white_counterclockwise_notarget_incorrect_or_nopressloc32_
231	2	6	233	2	2	0	0	33	0	0	622200033	block6_	flicker_	shape2_	white_	counterclockwise_	loc33_	notarget_	incorrect_or_nopress	block6_flicker_shape2_white_counterclockwise_notarget_incorrect_or_nopressloc33_
232	2	6	202	1	2	0	0	2	0	0	621200002	block6_	flicker_	shape1_	white_	counterclockwise_	loc2_	notarget_	incorrect_or_nopress	block6_flicker_shape1_white_counterclockwise_notarget_incorrect_or_nopressloc2_
233	2	6	255	2	2	0	0	55	0	0	622200055	block6_	flicker_	shape2_	white_	counterclockwise_	loc55_	notarget_	incorrect_or_nopress	block6_flicker_shape2_white_counterclockwise_notarget_incorrect_or_nopressloc55_
234	2	6	242	2	1	0	0	42	0	0	622100042	block6_	flicker_	shape2_	black_	counterclockwise_	loc42_	notarget_	incorrect_or_nopress	block6_flicker_shape2_black_counterclockwise_notarget_incorrect_or_nopressloc42_
235	2	6	240	2	2	0	0	40	0	0	622200040	block6_	flicker_	shape2_	white_	counterclockwise_	loc40_	notarget_	incorrect_or_nopress	block6_flicker_shape2_white_counterclockwise_notarget_incorrect_or_nopressloc40_
236	2	6	220	1	2	0	0	20	0	0	621200020	block6_	flicker_	shape1_	white_	counterclockwise_	loc20_	notarget_	incorrect_or_nopress	block6_flicker_shape1_white_counterclockwise_notarget_incorrect_or_nopressloc20_
237	2	6	254	1	2	0	0	54	0	0	621200054	block6_	flicker_	shape1_	white_	counterclockwise_	loc54_	notarget_	incorrect_or_nopress	block6_flicker_shape1_white_counterclockwise_notarget_incorrect_or_nopressloc54_
238	2	6	226	1	1	0	0	26	0	0	621100026	block6_	flicker_	shape1_	black_	counterclockwise_	loc26_	notarget_	incorrect_or_nopress	block6_flicker_shape1_black_counterclockwise_notarget_incorrect_or_nopressloc26_
239	2	6	264	2	2	0	0	64	0	0	622200064	block6_	flicker_	shape2_	white_	counterclockwise_	loc64_	notarget_	incorrect_or_nopress	block6_flicker_shape2_white_counterclockwise_notarget_incorrect_or_nopressloc64_
240	2	6	256	1	1	0	0	56	0	0	621100056	block6_	flicker_	shape1_	black_	counterclockwise_	loc56_	notarget_	incorrect_or_nopress	block6_flicker_shape1_black_counterclockwise_notarget_incorrect_or_nopressloc56_
241	2	6	211	2	1	0	0	11	0	0	622100011	block6_	flicker_	shape2_	black_	counterclockwise_	loc11_	notarget_	incorrect_or_nopress	block6_flicker_shape2_black_counterclockwise_notarget_incorrect_or_nopressloc11_
242	2	6	209	2	1	0	0	9	0	0	622100009	block6_	flicker_	shape2_	black_	counterclockwise_	loc9_	notarget_	incorrect_or_nopress	block6_flicker_shape2_black_counterclockwise_notarget_incorrect_or_nopressloc9_
243	2	6	262	2	2	0	0	62	0	0	622200062	block6_	flicker_	shape2_	white_	counterclockwise_	loc62_	notarget_	incorrect_or_nopress	block6_flicker_shape2_white_counterclockwise_notarget_incorrect_or_nopressloc62_
244	2	6	234	2	1	0	0	34	0	0	622100034	block6_	flicker_	shape2_	black_	counterclockwise_	loc34_	notarget_	incorrect_or_nopress	block6_flicker_shape2_black_counterclockwise_notarget_incorrect_or_nopressloc34_
245	2	6	211	1	1	0	0	11	0	0	621100011	block6_	flicker_	shape1_	black_	counterclockwise_	loc11_	notarget_	incorrect_or_nopress	block6_flicker_shape1_black_counterclockwise_notarget_incorrect_or_nopressloc11_
246	2	6	202	2	2	0	2	2	2	0	622202002	block6_	flicker_	shape2_	white_	counterclockwise_	loc2_	padding_	incorrect_or_nopress	block6_flicker_shape2_white_counterclockwise_padding_incorrect_or_nopressloc2_
247	2	6	239	2	2	0	2	39	2	0	622202039	block6_	flicker_	shape2_	white_	counterclockwise_	loc39_	padding_	incorrect_or_nopress	block6_flicker_shape2_white_counterclockwise_padding_incorrect_or_nopressloc39_
248	2	6	224	1	1	0	2	24	2	0	621102024	block6_	flicker_	shape1_	black_	counterclockwise_	loc24_	padding_	incorrect_or_nopress	block6_flicker_shape1_black_counterclockwise_padding_incorrect_or_nopressloc24_
249	2	6	201	2	1	0	2	1	2	0	622102001	block6_	flicker_	shape2_	black_	counterclockwise_	loc1_	padding_	incorrect_or_nopress	block6_flicker_shape2_black_counterclockwise_padding_incorrect_or_nopressloc1_
250	2	6	232	1	1	0	2	32	2	0	621102032	block6_	flicker_	shape1_	black_	counterclockwise_	loc32_	padding_	incorrect_or_nopress	block6_flicker_shape1_black_counterclockwise_padding_incorrect_or_nopressloc32_
251	2	6	233	1	2	0	2	33	2	0	621202033	block6_	flicker_	shape1_	white_	counterclockwise_	loc33_	padding_	incorrect_or_nopress	block6_flicker_shape1_white_counterclockwise_padding_incorrect_or_nopressloc33_
252	2	6	230	2	1	0	2	30	2	0	622102030	block6_	flicker_	shape2_	black_	counterclockwise_	loc30_	padding_	incorrect_or_nopress	block6_flicker_shape2_black_counterclockwise_padding_incorrect_or_nopressloc30_
253	2	6	243	1	2	0	1	43	1	0	621201043	block6_	flicker_	shape1_	white_	counterclockwise_	loc43_	istarget_	incorrect_or_nopress	block6_flicker_shape1_white_counterclockwise_istarget_incorrect_or_nopressloc43_
254	2	6	217	1	1	0	2	17	2	0	621102017	block6_	flicker_	shape1_	black_	counterclockwise_	loc17_	padding_	incorrect_or_nopress	block6_flicker_shape1_black_counterclockwise_padding_incorrect_or_nopressloc17_
255	2	6	264	1	1	0	2	64	2	0	621102064	block6_	flicker_	shape1_	black_	counterclockwise_	loc64_	padding_	incorrect_or_nopress	block6_flicker_shape1_black_counterclockwise_padding_incorrect_or_nopressloc64_
256	2	6	214	2	2	0	2	14	2	0	622202014	block6_	flicker_	shape2_	white_	counterclockwise_	loc14_	padding_	incorrect_or_nopress	block6_flicker_shape2_white_counterclockwise_padding_incorrect_or_nopressloc14_
257	2	6	261	2	1	0	2	61	2	0	622102061	block6_	flicker_	shape2_	black_	counterclockwise_	loc61_	padding_	incorrect_or_nopress	block6_flicker_shape2_black_counterclockwise_padding_incorrect_or_nopressloc61_
258	2	6	235	2	1	0	2	35	2	0	622102035	block6_	flicker_	shape2_	black_	counterclockwise_	loc35_	padding_	incorrect_or_nopress	block6_flicker_shape2_black_counterclockwise_padding_incorrect_or_nopressloc35_
259	2	6	211	2	2	0	2	11	2	0	622202011	block6_	flicker_	shape2_	white_	counterclockwise_	loc11_	padding_	incorrect_or_nopress	block6_flicker_shape2_white_counterclockwise_padding_incorrect_or_nopressloc11_
260	2	6	254	1	2	0	2	54	2	0	621202054	block6_	flicker_	shape1_	white_	counterclockwise_	loc54_	padding_	incorrect_or_nopress	block6_flicker_shape1_white_counterclockwise_padding_incorrect_or_nopressloc54_
261	2	6	223	1	2	0	2	23	2	0	621202023	block6_	flicker_	shape1_	white_	counterclockwise_	loc23_	padding_	incorrect_or_nopress	block6_flicker_shape1_white_counterclockwise_padding_incorrect_or_nopressloc23_
262	2	6	244	2	2	0	0	44	0	0	622200044	block6_	flicker_	shape2_	white_	counterclockwise_	loc44_	notarget_	incorrect_or_nopress	block6_flicker_shape2_white_counterclockwise_notarget_incorrect_or_nopressloc44_
263	2	6	222	2	2	0	0	22	0	0	622200022	block6_	flicker_	shape2_	white_	counterclockwise_	loc22_	notarget_	incorrect_or_nopress	block6_flicker_shape2_white_counterclockwise_notarget_incorrect_or_nopressloc22_
264	2	6	210	2	2	0	0	10	0	0	622200010	block6_	flicker_	shape2_	white_	counterclockwise_	loc10_	notarget_	incorrect_or_nopress	block6_flicker_shape2_white_counterclockwise_notarget_incorrect_or_nopressloc10_
265	2	6	203	1	1	0	0	3	0	0	621100003	block6_	flicker_	shape1_	black_	counterclockwise_	loc3_	notarget_	incorrect_or_nopress	block6_flicker_shape1_black_counterclockwise_notarget_incorrect_or_nopressloc3_
266	2	6	253	1	1	0	0	53	0	0	621100053	block6_	flicker_	shape1_	black_	counterclockwise_	loc53_	notarget_	incorrect_or_nopress	block6_flicker_shape1_black_counterclockwise_notarget_incorrect_or_nopressloc53_
267	2	6	258	2	1	0	0	58	0	0	622100058	block6_	flicker_	shape2_	black_	counterclockwise_	loc58_	notarget_	incorrect_or_nopress	block6_flicker_shape2_black_counterclockwise_notarget_incorrect_or_nopressloc58_
268	2	6	251	2	1	0	0	51	0	0	622100051	block6_	flicker_	shape2_	black_	counterclockwise_	loc51_	notarget_	incorrect_or_nopress	block6_flicker_shape2_black_counterclockwise_notarget_incorrect_or_nopressloc51_
269	2	6	216	2	2	0	0	16	0	0	622200016	block6_	flicker_	shape2_	white_	counterclockwise_	loc16_	notarget_	incorrect_or_nopress	block6_flicker_shape2_white_counterclockwise_notarget_incorrect_or_nopressloc16_
270	2	6	232	1	1	0	0	32	0	0	621100032	block6_	flicker_	shape1_	black_	counterclockwise_	loc32_	notarget_	incorrect_or_nopress	block6_flicker_shape1_black_counterclockwise_notarget_incorrect_or_nopressloc32_
271	2	6	263	2	1	0	0	63	0	0	622100063	block6_	flicker_	shape2_	black_	counterclockwise_	loc63_	notarget_	incorrect_or_nopress	block6_flicker_shape2_black_counterclockwise_notarget_incorrect_or_nopressloc63_
272	2	6	218	1	2	0	0	18	0	0	621200018	block6_	flicker_	shape1_	white_	counterclockwise_	loc18_	notarget_	incorrect_or_nopress	block6_flicker_shape1_white_counterclockwise_notarget_incorrect_or_nopressloc18_
273	2	6	201	2	1	0	0	1	0	0	622100001	block6_	flicker_	shape2_	black_	counterclockwise_	loc1_	notarget_	incorrect_or_nopress	block6_flicker_shape2_black_counterclockwise_notarget_incorrect_or_nopressloc1_
274	2	6	235	1	2	0	0	35	0	0	621200035	block6_	flicker_	shape1_	white_	counterclockwise_	loc35_	notarget_	incorrect_or_nopress	block6_flicker_shape1_white_counterclockwise_notarget_incorrect_or_nopressloc35_
275	2	6	237	2	1	0	0	37	0	0	622100037	block6_	flicker_	shape2_	black_	counterclockwise_	loc37_	notarget_	incorrect_or_nopress	block6_flicker_shape2_black_counterclockwise_notarget_incorrect_or_nopressloc37_
276	2	6	201	1	2	0	0	1	0	0	621200001	block6_	flicker_	shape1_	white_	counterclockwise_	loc1_	notarget_	incorrect_or_nopress	block6_flicker_shape1_white_counterclockwise_notarget_incorrect_or_nopressloc1_
277	2	6	248	2	1	0	0	48	0	0	622100048	block6_	flicker_	shape2_	black_	counterclockwise_	loc48_	notarget_	incorrect_or_nopress	block6_flicker_shape2_black_counterclockwise_notarget_incorrect_or_nopressloc48_
278	2	6	209	2	2	0	0	9	0	0	622200009	block6_	flicker_	shape2_	white_	counterclockwise_	loc9_	notarget_	incorrect_or_nopress	block6_flicker_shape2_white_counterclockwise_notarget_incorrect_or_nopressloc9_
279	2	6	229	2	1	0	0	29	0	0	622100029	block6_	flicker_	shape2_	black_	counterclockwise_	loc29_	notarget_	incorrect_or_nopress	block6_flicker_shape2_black_counterclockwise_notarget_incorrect_or_nopressloc29_
280	2	6	244	1	1	0	0	44	0	0	621100044	block6_	flicker_	shape1_	black_	counterclockwise_	loc44_	notarget_	incorrect_or_nopress	block6_flicker_shape1_black_counterclockwise_notarget_incorrect_or_nopressloc44_
281	2	6	261	2	2	0	0	61	0	0	622200061	block6_	flicker_	shape2_	white_	counterclockwise_	loc61_	notarget_	incorrect_or_nopress	block6_flicker_shape2_white_counterclockwise_notarget_incorrect_or_nopressloc61_
282	2	6	246	1	1	0	0	46	0	0	621100046	block6_	flicker_	shape1_	black_	counterclockwise_	loc46_	notarget_	incorrect_or_nopress	block6_flicker_shape1_black_counterclockwise_notarget_incorrect_or_nopressloc46_
283	2	6	206	1	1	0	0	6	0	0	621100006	block6_	flicker_	shape1_	black_	counterclockwise_	loc6_	notarget_	incorrect_or_nopress	block6_flicker_shape1_black_counterclockwise_notarget_incorrect_or_nopressloc6_
284	2	6	215	1	2	0	0	15	0	0	621200015	block6_	flicker_	shape1_	white_	counterclockwise_	loc15_	notarget_	incorrect_or_nopress	block6_flicker_shape1_white_counterclockwise_notarget_incorrect_or_nopressloc15_
285	2	6	261	1	2	0	0	61	0	0	621200061	block6_	flicker_	shape1_	white_	counterclockwise_	loc61_	notarget_	incorrect_or_nopress	block6_flicker_shape1_white_counterclockwise_notarget_incorrect_or_nopressloc61_
286	2	6	208	1	1	0	0	8	0	0	621100008	block6_	flicker_	shape1_	black_	counterclockwise_	loc8_	notarget_	incorrect_or_nopress	block6_flicker_shape1_black_counterclockwise_notarget_incorrect_or_nopressloc8_
287	2	6	232	2	1	0	0	32	0	0	622100032	block6_	flicker_	shape2_	black_	counterclockwise_	loc32_	notarget_	incorrect_or_nopress	block6_flicker_shape2_black_counterclockwise_notarget_incorrect_or_nopressloc32_
288	2	6	204	1	2	0	0	4	0	0	621200004	block6_	flicker_	shape1_	white_	counterclockwise_	loc4_	notarget_	incorrect_or_nopress	block6_flicker_shape1_white_counterclockwise_notarget_incorrect_or_nopressloc4_
289	2	6	220	2	1	0	0	20	0	0	622100020	block6_	flicker_	shape2_	black_	counterclockwise_	loc20_	notarget_	incorrect_or_nopress	block6_flicker_shape2_black_counterclockwise_notarget_incorrect_or_nopressloc20_
290	2	6	262	2	1	0	0	62	0	0	622100062	block6_	flicker_	shape2_	black_	counterclockwise_	loc62_	notarget_	incorrect_or_nopress	block6_flicker_shape2_black_counterclockwise_notarget_incorrect_or_nopressloc62_
291	2	6	217	2	2	0	0	17	0	0	622200017	block6_	flicker_	shape2_	white_	counterclockwise_	loc17_	notarget_	incorrect_or_nopress	block6_flicker_shape2_white_counterclockwise_notarget_incorrect_or_nopressloc17_
292	2	6	223	2	2	0	0	23	0	0	622200023	block6_	flicker_	shape2_	white_	counterclockwise_	loc23_	notarget_	incorrect_or_nopress	block6_flicker_shape2_white_counterclockwise_notarget_incorrect_or_nopressloc23_
293	2	6	213	2	2	0	0	13	0	0	622200013	block6_	flicker_	shape2_	white_	counterclockwise_	loc13_	notarget_	incorrect_or_nopress	block6_flicker_shape2_white_counterclockwise_notarget_incorrect_or_nopressloc13_
294	2	6	254	2	2	0	0	54	0	0	622200054	block6_	flicker_	shape2_	white_	counterclockwise_	loc54_	notarget_	incorrect_or_nopress	block6_flicker_shape2_white_counterclockwise_notarget_incorrect_or_nopressloc54_
295	2	6	260	1	2	0	0	60	0	0	621200060	block6_	flicker_	shape1_	white_	counterclockwise_	loc60_	notarget_	incorrect_or_nopress	block6_flicker_shape1_white_counterclockwise_notarget_incorrect_or_nopressloc60_
296	2	6	229	2	2	0	0	29	0	0	622200029	block6_	flicker_	shape2_	white_	counterclockwise_	loc29_	notarget_	incorrect_or_nopress	block6_flicker_shape2_white_counterclockwise_notarget_incorrect_or_nopressloc29_
297	2	6	255	2	1	0	0	55	0	0	622100055	block6_	flicker_	shape2_	black_	counterclockwise_	loc55_	notarget_	incorrect_or_nopress	block6_flicker_shape2_black_counterclockwise_notarget_incorrect_or_nopressloc55_
298	2	6	245	2	2	0	0	45	0	0	622200045	block6_	flicker_	shape2_	white_	counterclockwise_	loc45_	notarget_	incorrect_or_nopress	block6_flicker_shape2_white_counterclockwise_notarget_incorrect_or_nopressloc45_
299	2	6	246	1	2	0	0	46	0	0	621200046	block6_	flicker_	shape1_	white_	counterclockwise_	loc46_	notarget_	incorrect_or_nopress	block6_flicker_shape1_white_counterclockwise_notarget_incorrect_or_nopressloc46_
300	2	6	263	1	1	0	0	63	0	0	621100063	block6_	flicker_	shape1_	black_	counterclockwise_	loc63_	notarget_	incorrect_or_nopress	block6_flicker_shape1_black_counterclockwise_notarget_incorrect_or_nopressloc63_
301	2	6	249	2	2	0	0	49	0	0	622200049	block6_	flicker_	shape2_	white_	counterclockwise_	loc49_	notarget_	incorrect_or_nopress	block6_flicker_shape2_white_counterclockwise_notarget_incorrect_or_nopressloc49_
302	2	6	248	1	2	0	0	48	0	0	621200048	block6_	flicker_	shape1_	white_	counterclockwise_	loc48_	notarget_	incorrect_or_nopress	block6_flicker_shape1_white_counterclockwise_notarget_incorrect_or_nopressloc48_
303	2	6	256	2	1	0	0	56	0	0	622100056	block6_	flicker_	shape2_	black_	counterclockwise_	loc56_	notarget_	incorrect_or_nopress	block6_flicker_shape2_black_counterclockwise_notarget_incorrect_or_nopressloc56_
304	2	6	264	2	1	0	0	64	0	0	622100064	block6_	flicker_	shape2_	black_	counterclockwise_	loc64_	notarget_	incorrect_or_nopress	block6_flicker_shape2_black_counterclockwise_notarget_incorrect_or_nopressloc64_
305	2	6	207	1	1	0	0	7	0	0	621100007	block6_	flicker_	shape1_	black_	counterclockwise_	loc7_	notarget_	incorrect_or_nopress	block6_flicker_shape1_black_counterclockwise_notarget_incorrect_or_nopressloc7_
306	2	6	244	1	2	0	0	44	0	0	621200044	block6_	flicker_	shape1_	white_	counterclockwise_	loc44_	notarget_	incorrect_or_nopress	block6_flicker_shape1_white_counterclockwise_notarget_incorrect_or_nopressloc44_
307	2	6	207	1	2	0	0	7	0	0	621200007	block6_	flicker_	shape1_	white_	counterclockwise_	loc7_	notarget_	incorrect_or_nopress	block6_flicker_shape1_white_counterclockwise_notarget_incorrect_or_nopressloc7_
308	2	6	252	2	1	0	0	52	0	0	622100052	block6_	flicker_	shape2_	black_	counterclockwise_	loc52_	notarget_	incorrect_or_nopress	block6_flicker_shape2_black_counterclockwise_notarget_incorrect_or_nopressloc52_
309	2	6	215	2	1	0	0	15	0	0	622100015	block6_	flicker_	shape2_	black_	counterclockwise_	loc15_	notarget_	incorrect_or_nopress	block6_flicker_shape2_black_counterclockwise_notarget_incorrect_or_nopressloc15_
310	2	6	228	1	2	0	0	28	0	0	621200028	block6_	flicker_	shape1_	white_	counterclockwise_	loc28_	notarget_	incorrect_or_nopress	block6_flicker_shape1_white_counterclockwise_notarget_incorrect_or_nopressloc28_
311	2	6	217	2	1	0	0	17	0	0	622100017	block6_	flicker_	shape2_	black_	counterclockwise_	loc17_	notarget_	incorrect_or_nopress	block6_flicker_shape2_black_counterclockwise_notarget_incorrect_or_nopressloc17_
312	2	6	227	1	2	0	0	27	0	0	621200027	block6_	flicker_	shape1_	white_	counterclockwise_	loc27_	notarget_	incorrect_or_nopress	block6_flicker_shape1_white_counterclockwise_notarget_incorrect_or_nopressloc27_
313	2	6	247	2	2	0	0	47	0	0	622200047	block6_	flicker_	shape2_	white_	counterclockwise_	loc47_	notarget_	incorrect_or_nopress	block6_flicker_shape2_white_counterclockwise_notarget_incorrect_or_nopressloc47_
314	2	6	221	2	2	0	0	21	0	0	622200021	block6_	flicker_	shape2_	white_	counterclockwise_	loc21_	notarget_	incorrect_or_nopress	block6_flicker_shape2_white_counterclockwise_notarget_incorrect_or_nopressloc21_
315	2	6	227	1	1	0	0	27	0	0	621100027	block6_	flicker_	shape1_	black_	counterclockwise_	loc27_	notarget_	incorrect_or_nopress	block6_flicker_shape1_black_counterclockwise_notarget_incorrect_or_nopressloc27_
316	2	6	241	1	1	0	0	41	0	0	621100041	block6_	flicker_	shape1_	black_	counterclockwise_	loc41_	notarget_	incorrect_or_nopress	block6_flicker_shape1_black_counterclockwise_notarget_incorrect_or_nopressloc41_
317	2	6	260	1	1	0	0	60	0	0	621100060	block6_	flicker_	shape1_	black_	counterclockwise_	loc60_	notarget_	incorrect_or_nopress	block6_flicker_shape1_black_counterclockwise_notarget_incorrect_or_nopressloc60_
318	2	6	262	1	2	0	0	62	0	0	621200062	block6_	flicker_	shape1_	white_	counterclockwise_	loc62_	notarget_	incorrect_or_nopress	block6_flicker_shape1_white_counterclockwise_notarget_incorrect_or_nopressloc62_
319	2	6	240	1	2	0	0	40	0	0	621200040	block6_	flicker_	shape1_	white_	counterclockwise_	loc40_	notarget_	incorrect_or_nopress	block6_flicker_shape1_white_counterclockwise_notarget_incorrect_or_nopressloc40_
320	2	6	237	2	2	0	0	37	0	0	622200037	block6_	flicker_	shape2_	white_	counterclockwise_	loc37_	notarget_	incorrect_or_nopress	block6_flicker_shape2_white_counterclockwise_notarget_incorrect_or_nopressloc37_
321	2	6	228	1	1	0	0	28	0	0	621100028	block6_	flicker_	shape1_	black_	counterclockwise_	loc28_	notarget_	incorrect_or_nopress	block6_flicker_shape1_black_counterclockwise_notarget_incorrect_or_nopressloc28_
322	2	6	242	1	1	0	0	42	0	0	621100042	block6_	flicker_	shape1_	black_	counterclockwise_	loc42_	notarget_	incorrect_or_nopress	block6_flicker_shape1_black_counterclockwise_notarget_incorrect_or_nopressloc42_
323	2	6	210	1	2	0	0	10	0	0	621200010	block6_	flicker_	shape1_	white_	counterclockwise_	loc10_	notarget_	incorrect_or_nopress	block6_flicker_shape1_white_counterclockwise_notarget_incorrect_or_nopressloc10_
324	2	6	262	1	1	0	0	62	0	0	621100062	block6_	flicker_	shape1_	black_	counterclockwise_	loc62_	notarget_	incorrect_or_nopress	block6_flicker_shape1_black_counterclockwise_notarget_incorrect_or_nopressloc62_
325	2	6	216	1	1	0	0	16	0	0	621100016	block6_	flicker_	shape1_	black_	counterclockwise_	loc16_	notarget_	incorrect_or_nopress	block6_flicker_shape1_black_counterclockwise_notarget_incorrect_or_nopressloc16_
326	2	6	226	1	2	0	0	26	0	0	621200026	block6_	flicker_	shape1_	white_	counterclockwise_	loc26_	notarget_	incorrect_or_nopress	block6_flicker_shape1_white_counterclockwise_notarget_incorrect_or_nopressloc26_
327	2	6	246	2	2	0	0	46	0	0	622200046	block6_	flicker_	shape2_	white_	counterclockwise_	loc46_	notarget_	incorrect_or_nopress	block6_flicker_shape2_white_counterclockwise_notarget_incorrect_or_nopressloc46_
328	2	6	208	1	2	0	0	8	0	0	621200008	block6_	flicker_	shape1_	white_	counterclockwise_	loc8_	notarget_	incorrect_or_nopress	block6_flicker_shape1_white_counterclockwise_notarget_incorrect_or_nopressloc8_
329	2	6	209	1	1	0	0	9	0	0	621100009	block6_	flicker_	shape1_	black_	counterclockwise_	loc9_	notarget_	incorrect_or_nopress	block6_flicker_shape1_black_counterclockwise_notarget_incorrect_or_nopressloc9_
330	2	6	260	2	1	0	0	60	0	0	622100060	block6_	flicker_	shape2_	black_	counterclockwise_	loc60_	notarget_	incorrect_or_nopress	block6_flicker_shape2_black_counterclockwise_notarget_incorrect_or_nopressloc60_
331	2	6	224	2	2	0	0	24	0	0	622200024	block6_	flicker_	shape2_	white_	counterclockwise_	loc24_	notarget_	incorrect_or_nopress	block6_flicker_shape2_white_counterclockwise_notarget_incorrect_or_nopressloc24_
332	2	6	238	1	2	0	0	38	0	0	621200038	block6_	flicker_	shape1_	white_	counterclockwise_	loc38_	notarget_	incorrect_or_nopress	block6_flicker_shape1_white_counterclockwise_notarget_incorrect_or_nopressloc38_
333	2	6	241	1	2	0	0	41	0	0	621200041	block6_	flicker_	shape1_	white_	counterclockwise_	loc41_	notarget_	incorrect_or_nopress	block6_flicker_shape1_white_counterclockwise_notarget_incorrect_or_nopressloc41_
334	2	6	243	2	2	0	0	43	0	0	622200043	block6_	flicker_	shape2_	white_	counterclockwise_	loc43_	notarget_	incorrect_or_nopress	block6_flicker_shape2_white_counterclockwise_notarget_incorrect_or_nopressloc43_
335	2	6	219	1	2	0	0	19	0	0	621200019	block6_	flicker_	shape1_	white_	counterclockwise_	loc19_	notarget_	incorrect_or_nopress	block6_flicker_shape1_white_counterclockwise_notarget_incorrect_or_nopressloc19_
336	2	6	203	2	2	0	0	3	0	0	622200003	block6_	flicker_	shape2_	white_	counterclockwise_	loc3_	notarget_	incorrect_or_nopress	block6_flicker_shape2_white_counterclockwise_notarget_incorrect_or_nopressloc3_
337	2	6	226	2	1	0	0	26	0	0	622100026	block6_	flicker_	shape2_	black_	counterclockwise_	loc26_	notarget_	incorrect_or_nopress	block6_flicker_shape2_black_counterclockwise_notarget_incorrect_or_nopressloc26_
338	2	6	224	1	2	0	0	24	0	0	621200024	block6_	flicker_	shape1_	white_	counterclockwise_	loc24_	notarget_	incorrect_or_nopress	block6_flicker_shape1_white_counterclockwise_notarget_incorrect_or_nopressloc24_
339	2	6	229	1	2	0	0	29	0	0	621200029	block6_	flicker_	shape1_	white_	counterclockwise_	loc29_	notarget_	incorrect_or_nopress	block6_flicker_shape1_white_counterclockwise_notarget_incorrect_or_nopressloc29_
340	2	6	219	1	1	0	0	19	0	0	621100019	block6_	flicker_	shape1_	black_	counterclockwise_	loc19_	notarget_	incorrect_or_nopress	block6_flicker_shape1_black_counterclockwise_notarget_incorrect_or_nopressloc19_
341	2	6	226	2	2	0	0	26	0	0	622200026	block6_	flicker_	shape2_	white_	counterclockwise_	loc26_	notarget_	incorrect_or_nopress	block6_flicker_shape2_white_counterclockwise_notarget_incorrect_or_nopressloc26_
342	2	6	246	2	1	0	0	46	0	0	622100046	block6_	flicker_	shape2_	black_	counterclockwise_	loc46_	notarget_	incorrect_or_nopress	block6_flicker_shape2_black_counterclockwise_notarget_incorrect_or_nopressloc46_
343	2	6	212	1	2	0	0	12	0	0	621200012	block6_	flicker_	shape1_	white_	counterclockwise_	loc12_	notarget_	incorrect_or_nopress	block6_flicker_shape1_white_counterclockwise_notarget_incorrect_or_nopressloc12_
344	2	6	216	1	2	0	0	16	0	0	621200016	block6_	flicker_	shape1_	white_	counterclockwise_	loc16_	notarget_	incorrect_or_nopress	block6_flicker_shape1_white_counterclockwise_notarget_incorrect_or_nopressloc16_
345	2	6	234	1	2	0	0	34	0	0	621200034	block6_	flicker_	shape1_	white_	counterclockwise_	loc34_	notarget_	incorrect_or_nopress	block6_flicker_shape1_white_counterclockwise_notarget_incorrect_or_nopressloc34_
346	2	6	249	1	1	0	0	49	0	0	621100049	block6_	flicker_	shape1_	black_	counterclockwise_	loc49_	notarget_	incorrect_or_nopress	block6_flicker_shape1_black_counterclockwise_notarget_incorrect_or_nopressloc49_
347	2	6	233	2	1	0	0	33	0	0	622100033	block6_	flicker_	shape2_	black_	counterclockwise_	loc33_	notarget_	incorrect_or_nopress	block6_flicker_shape2_black_counterclockwise_notarget_incorrect_or_nopressloc33_
348	2	6	225	1	2	0	0	25	0	0	621200025	block6_	flicker_	shape1_	white_	counterclockwise_	loc25_	notarget_	incorrect_or_nopress	block6_flicker_shape1_white_counterclockwise_notarget_incorrect_or_nopressloc25_
349	2	6	260	2	2	0	0	60	0	0	622200060	block6_	flicker_	shape2_	white_	counterclockwise_	loc60_	notarget_	incorrect_or_nopress	block6_flicker_shape2_white_counterclockwise_notarget_incorrect_or_nopressloc60_
350	2	6	218	2	1	0	0	18	0	0	622100018	block6_	flicker_	shape2_	black_	counterclockwise_	loc18_	notarget_	incorrect_or_nopress	block6_flicker_shape2_black_counterclockwise_notarget_incorrect_or_nopressloc18_
351	2	6	211	2	2	0	0	11	0	0	622200011	block6_	flicker_	shape2_	white_	counterclockwise_	loc11_	notarget_	incorrect_or_nopress	block6_flicker_shape2_white_counterclockwise_notarget_incorrect_or_nopressloc11_
352	2	6	222	1	2	0	0	22	0	0	621200022	block6_	flicker_	shape1_	white_	counterclockwise_	loc22_	notarget_	incorrect_or_nopress	block6_flicker_shape1_white_counterclockwise_notarget_incorrect_or_nopressloc22_
353	2	6	214	1	1	0	0	14	0	0	621100014	block6_	flicker_	shape1_	black_	counterclockwise_	loc14_	notarget_	incorrect_or_nopress	block6_flicker_shape1_black_counterclockwise_notarget_incorrect_or_nopressloc14_
354	2	6	236	1	2	0	0	36	0	0	621200036	block6_	flicker_	shape1_	white_	counterclockwise_	loc36_	notarget_	incorrect_or_nopress	block6_flicker_shape1_white_counterclockwise_notarget_incorrect_or_nopressloc36_
355	2	6	233	1	2	0	0	33	0	0	621200033	block6_	flicker_	shape1_	white_	counterclockwise_	loc33_	notarget_	incorrect_or_nopress	block6_flicker_shape1_white_counterclockwise_notarget_incorrect_or_nopressloc33_
356	2	6	230	2	1	0	0	30	0	0	622100030	block6_	flicker_	shape2_	black_	counterclockwise_	loc30_	notarget_	incorrect_or_nopress	block6_flicker_shape2_black_counterclockwise_notarget_incorrect_or_nopressloc30_
357	2	6	239	1	2	0	0	39	0	0	621200039	block6_	flicker_	shape1_	white_	counterclockwise_	loc39_	notarget_	incorrect_or_nopress	block6_flicker_shape1_white_counterclockwise_notarget_incorrect_or_nopressloc39_
358	2	6	206	2	1	0	0	6	0	0	622100006	block6_	flicker_	shape2_	black_	counterclockwise_	loc6_	notarget_	incorrect_or_nopress	block6_flicker_shape2_black_counterclockwise_notarget_incorrect_or_nopressloc6_
359	2	6	202	2	1	0	0	2	0	0	622100002	block6_	flicker_	shape2_	black_	counterclockwise_	loc2_	notarget_	incorrect_or_nopress	block6_flicker_shape2_black_counterclockwise_notarget_incorrect_or_nopressloc2_
360	2	6	259	2	1	0	0	59	0	0	622100059	block6_	flicker_	shape2_	black_	counterclockwise_	loc59_	notarget_	incorrect_or_nopress	block6_flicker_shape2_black_counterclockwise_notarget_incorrect_or_nopressloc59_
361	2	6	201	2	2	0	0	1	0	0	622200001	block6_	flicker_	shape2_	white_	counterclockwise_	loc1_	notarget_	incorrect_or_nopress	block6_flicker_shape2_white_counterclockwise_notarget_incorrect_or_nopressloc1_
362	2	6	238	2	1	0	0	38	0	0	622100038	block6_	flicker_	shape2_	black_	counterclockwise_	loc38_	notarget_	incorrect_or_nopress	block6_flicker_shape2_black_counterclockwise_notarget_incorrect_or_nopressloc38_
363	2	6	247	2	1	0	0	47	0	0	622100047	block6_	flicker_	shape2_	black_	counterclockwise_	loc47_	notarget_	incorrect_or_nopress	block6_flicker_shape2_black_counterclockwise_notarget_incorrect_or_nopressloc47_
364	2	6	231	1	2	0	0	31	0	0	621200031	block6_	flicker_	shape1_	white_	counterclockwise_	loc31_	notarget_	incorrect_or_nopress	block6_flicker_shape1_white_counterclockwise_notarget_incorrect_or_nopressloc31_
365	2	6	220	1	1	0	0	20	0	0	621100020	block6_	flicker_	shape1_	black_	counterclockwise_	loc20_	notarget_	incorrect_or_nopress	block6_flicker_shape1_black_counterclockwise_notarget_incorrect_or_nopressloc20_
366	2	6	205	2	2	0	0	5	0	0	622200005	block6_	flicker_	shape2_	white_	counterclockwise_	loc5_	notarget_	incorrect_or_nopress	block6_flicker_shape2_white_counterclockwise_notarget_incorrect_or_nopressloc5_
367	2	6	215	1	1	0	0	15	0	0	621100015	block6_	flicker_	shape1_	black_	counterclockwise_	loc15_	notarget_	incorrect_or_nopress	block6_flicker_shape1_black_counterclockwise_notarget_incorrect_or_nopressloc15_
368	2	6	209	1	2	0	0	9	0	0	621200009	block6_	flicker_	shape1_	white_	counterclockwise_	loc9_	notarget_	incorrect_or_nopress	block6_flicker_shape1_white_counterclockwise_notarget_incorrect_or_nopressloc9_
369	2	6	212	2	2	0	0	12	0	0	622200012	block6_	flicker_	shape2_	white_	counterclockwise_	loc12_	notarget_	incorrect_or_nopress	block6_flicker_shape2_white_counterclockwise_notarget_incorrect_or_nopressloc12_
370	2	6	257	2	2	0	0	57	0	0	622200057	block6_	flicker_	shape2_	white_	counterclockwise_	loc57_	notarget_	incorrect_or_nopress	block6_flicker_shape2_white_counterclockwise_notarget_incorrect_or_nopressloc57_
371	2	6	253	2	2	0	0	53	0	0	622200053	block6_	flicker_	shape2_	white_	counterclockwise_	loc53_	notarget_	incorrect_or_nopress	block6_flicker_shape2_white_counterclockwise_notarget_incorrect_or_nopressloc53_
372	2	6	240	2	1	0	0	40	0	0	622100040	block6_	flicker_	shape2_	black_	counterclockwise_	loc40_	notarget_	incorrect_or_nopress	block6_flicker_shape2_black_counterclockwise_notarget_incorrect_or_nopressloc40_
373	2	6	205	2	1	0	0	5	0	0	622100005	block6_	flicker_	shape2_	black_	counterclockwise_	loc5_	notarget_	incorrect_or_nopress	block6_flicker_shape2_black_counterclockwise_notarget_incorrect_or_nopressloc5_
374	2	6	252	1	2	0	0	52	0	0	621200052	block6_	flicker_	shape1_	white_	counterclockwise_	loc52_	notarget_	incorrect_or_nopress	block6_flicker_shape1_white_counterclockwise_notarget_incorrect_or_nopressloc52_
375	2	6	213	1	1	0	0	13	0	0	621100013	block6_	flicker_	shape1_	black_	counterclockwise_	loc13_	notarget_	incorrect_or_nopress	block6_flicker_shape1_black_counterclockwise_notarget_incorrect_or_nopressloc13_
376	2	6	257	1	1	0	0	57	0	0	621100057	block6_	flicker_	shape1_	black_	counterclockwise_	loc57_	notarget_	incorrect_or_nopress	block6_flicker_shape1_black_counterclockwise_notarget_incorrect_or_nopressloc57_
377	2	6	257	2	1	0	0	57	0	0	622100057	block6_	flicker_	shape2_	black_	counterclockwise_	loc57_	notarget_	incorrect_or_nopress	block6_flicker_shape2_black_counterclockwise_notarget_incorrect_or_nopressloc57_
378	2	6	221	1	2	0	0	21	0	0	621200021	block6_	flicker_	shape1_	white_	counterclockwise_	loc21_	notarget_	incorrect_or_nopress	block6_flicker_shape1_white_counterclockwise_notarget_incorrect_or_nopressloc21_
379	2	6	264	1	1	0	0	64	0	0	621100064	block6_	flicker_	shape1_	black_	counterclockwise_	loc64_	notarget_	incorrect_or_nopress	block6_flicker_shape1_black_counterclockwise_notarget_incorrect_or_nopressloc64_
380	2	6	247	2	2	0	2	47	2	0	622202047	block6_	flicker_	shape2_	white_	counterclockwise_	loc47_	padding_	incorrect_or_nopress	block6_flicker_shape2_white_counterclockwise_padding_incorrect_or_nopressloc47_
381	2	6	202	1	2	0	2	2	2	0	621202002	block6_	flicker_	shape1_	white_	counterclockwise_	loc2_	padding_	incorrect_or_nopress	block6_flicker_shape1_white_counterclockwise_padding_incorrect_or_nopressloc2_
382	2	6	227	2	2	0	2	27	2	0	622202027	block6_	flicker_	shape2_	white_	counterclockwise_	loc27_	padding_	incorrect_or_nopress	block6_flicker_shape2_white_counterclockwise_padding_incorrect_or_nopressloc27_
383	2	6	248	2	1	0	2	48	2	0	622102048	block6_	flicker_	shape2_	black_	counterclockwise_	loc48_	padding_	incorrect_or_nopress	block6_flicker_shape2_black_counterclockwise_padding_incorrect_or_nopressloc48_
384	2	6	249	1	1	0	2	49	2	0	621102049	block6_	flicker_	shape1_	black_	counterclockwise_	loc49_	padding_	incorrect_or_nopress	block6_flicker_shape1_black_counterclockwise_padding_incorrect_or_nopressloc49_
385	2	6	237	2	1	0	2	37	2	0	622102037	block6_	flicker_	shape2_	black_	counterclockwise_	loc37_	padding_	incorrect_or_nopress	block6_flicker_shape2_black_counterclockwise_padding_incorrect_or_nopressloc37_
386	2	6	207	2	1	0	2	7	2	0	622102007	block6_	flicker_	shape2_	black_	counterclockwise_	loc7_	padding_	incorrect_or_nopress	block6_flicker_shape2_black_counterclockwise_padding_incorrect_or_nopressloc7_
387	2	6	257	1	2	0	1	57	1	0	621201057	block6_	flicker_	shape1_	white_	counterclockwise_	loc57_	istarget_	incorrect_or_nopress	block6_flicker_shape1_white_counterclockwise_istarget_incorrect_or_nopressloc57_
388	2	6	246	1	2	0	2	46	2	0	621202046	block6_	flicker_	shape1_	white_	counterclockwise_	loc46_	padding_	incorrect_or_nopress	block6_flicker_shape1_white_counterclockwise_padding_incorrect_or_nopressloc46_
389	2	6	208	1	1	0	2	8	2	0	621102008	block6_	flicker_	shape1_	black_	counterclockwise_	loc8_	padding_	incorrect_or_nopress	block6_flicker_shape1_black_counterclockwise_padding_incorrect_or_nopressloc8_
390	2	6	241	1	1	0	2	41	2	0	621102041	block6_	flicker_	shape1_	black_	counterclockwise_	loc41_	padding_	incorrect_or_nopress	block6_flicker_shape1_black_counterclockwise_padding_incorrect_or_nopressloc41_
391	2	6	205	2	2	0	2	5	2	0	622202005	block6_	flicker_	shape2_	white_	counterclockwise_	loc5_	padding_	incorrect_or_nopress	block6_flicker_shape2_white_counterclockwise_padding_incorrect_or_nopressloc5_
392	2	6	264	1	1	0	2	64	2	0	621102064	block6_	flicker_	shape1_	black_	counterclockwise_	loc64_	padding_	incorrect_or_nopress	block6_flicker_shape1_black_counterclockwise_padding_incorrect_or_nopressloc64_
393	2	6	211	1	2	0	2	11	2	0	621202011	block6_	flicker_	shape1_	white_	counterclockwise_	loc11_	padding_	incorrect_or_nopress	block6_flicker_shape1_white_counterclockwise_padding_incorrect_or_nopressloc11_
394	2	6	242	2	1	0	2	42	2	0	622102042	block6_	flicker_	shape2_	black_	counterclockwise_	loc42_	padding_	incorrect_or_nopress	block6_flicker_shape2_black_counterclockwise_padding_incorrect_or_nopressloc42_
395	2	6	203	2	2	0	2	3	2	0	622202003	block6_	flicker_	shape2_	white_	counterclockwise_	loc3_	padding_	incorrect_or_nopress	block6_flicker_shape2_white_counterclockwise_padding_incorrect_or_nopressloc3_
396	2	6	251	1	1	0	0	51	0	0	621100051	block6_	flicker_	shape1_	black_	counterclockwise_	loc51_	notarget_	incorrect_or_nopress	block6_flicker_shape1_black_counterclockwise_notarget_incorrect_or_nopressloc51_
397	2	6	264	1	2	0	0	64	0	0	621200064	block6_	flicker_	shape1_	white_	counterclockwise_	loc64_	notarget_	incorrect_or_nopress	block6_flicker_shape1_white_counterclockwise_notarget_incorrect_or_nopressloc64_
398	2	6	253	1	2	0	0	53	0	0	621200053	block6_	flicker_	shape1_	white_	counterclockwise_	loc53_	notarget_	incorrect_or_nopress	block6_flicker_shape1_white_counterclockwise_notarget_incorrect_or_nopressloc53_
399	2	6	205	1	2	0	0	5	0	0	621200005	block6_	flicker_	shape1_	white_	counterclockwise_	loc5_	notarget_	incorrect_or_nopress	block6_flicker_shape1_white_counterclockwise_notarget_incorrect_or_nopressloc5_
400	2	6	202	1	1	0	0	2	0	0	621100002	block6_	flicker_	shape1_	black_	counterclockwise_	loc2_	notarget_	incorrect_or_nopress	block6_flicker_shape1_black_counterclockwise_notarget_incorrect_or_nopressloc2_
401	2	6	210	2	1	0	0	10	0	0	622100010	block6_	flicker_	shape2_	black_	counterclockwise_	loc10_	notarget_	incorrect_or_nopress	block6_flicker_shape2_black_counterclockwise_notarget_incorrect_or_nopressloc10_
402	2	6	243	2	1	0	0	43	0	0	622100043	block6_	flicker_	shape2_	black_	counterclockwise_	loc43_	notarget_	incorrect_or_nopress	block6_flicker_shape2_black_counterclockwise_notarget_incorrect_or_nopressloc43_
403	2	6	253	2	1	0	0	53	0	0	622100053	block6_	flicker_	shape2_	black_	counterclockwise_	loc53_	notarget_	incorrect_or_nopress	block6_flicker_shape2_black_counterclockwise_notarget_incorrect_or_nopressloc53_
404	2	6	214	1	2	0	0	14	0	0	621200014	block6_	flicker_	shape1_	white_	counterclockwise_	loc14_	notarget_	incorrect_or_nopress	block6_flicker_shape1_white_counterclockwise_notarget_incorrect_or_nopressloc14_
405	2	6	236	2	2	0	0	36	0	0	622200036	block6_	flicker_	shape2_	white_	counterclockwise_	loc36_	notarget_	incorrect_or_nopress	block6_flicker_shape2_white_counterclockwise_notarget_incorrect_or_nopressloc36_
406	2	6	203	2	1	0	0	3	0	1	622100103	block6_	flicker_	shape2_	black_	counterclockwise_	loc3_	notarget_	correct_or_press	block6_flicker_shape2_black_counterclockwise_notarget_correct_or_pressloc3_
407	2	6	258	1	1	0	0	58	0	1	621100158	block6_	flicker_	shape1_	black_	counterclockwise_	loc58_	notarget_	correct_or_press	block6_flicker_shape1_black_counterclockwise_notarget_correct_or_pressloc58_
408	2	6	263	1	2	0	0	63	0	1	621200163	block6_	flicker_	shape1_	white_	counterclockwise_	loc63_	notarget_	correct_or_press	block6_flicker_shape1_white_counterclockwise_notarget_correct_or_pressloc63_
409	2	6	230	1	2	0	0	30	0	1	621200130	block6_	flicker_	shape1_	white_	counterclockwise_	loc30_	notarget_	correct_or_press	block6_flicker_shape1_white_counterclockwise_notarget_correct_or_pressloc30_
410	2	6	206	2	2	0	0	6	0	1	622200106	block6_	flicker_	shape2_	white_	counterclockwise_	loc6_	notarget_	correct_or_press	block6_flicker_shape2_white_counterclockwise_notarget_correct_or_pressloc6_
411	2	6	261	1	1	0	0	61	0	1	621100161	block6_	flicker_	shape1_	black_	counterclockwise_	loc61_	notarget_	correct_or_press	block6_flicker_shape1_black_counterclockwise_notarget_correct_or_pressloc61_
412	2	6	212	1	1	0	0	12	0	0	621100012	block6_	flicker_	shape1_	black_	counterclockwise_	loc12_	notarget_	incorrect_or_nopress	block6_flicker_shape1_black_counterclockwise_notarget_incorrect_or_nopressloc12_
413	2	6	231	2	2	0	0	31	0	0	622200031	block6_	flicker_	shape2_	white_	counterclockwise_	loc31_	notarget_	incorrect_or_nopress	block6_flicker_shape2_white_counterclockwise_notarget_incorrect_or_nopressloc31_
414	2	6	254	2	1	0	0	54	0	0	622100054	block6_	flicker_	shape2_	black_	counterclockwise_	loc54_	notarget_	incorrect_or_nopress	block6_flicker_shape2_black_counterclockwise_notarget_incorrect_or_nopressloc54_
415	2	6	208	2	1	0	0	8	0	0	622100008	block6_	flicker_	shape2_	black_	counterclockwise_	loc8_	notarget_	incorrect_or_nopress	block6_flicker_shape2_black_counterclockwise_notarget_incorrect_or_nopressloc8_
416	2	6	222	2	1	0	0	22	0	0	622100022	block6_	flicker_	shape2_	black_	counterclockwise_	loc22_	notarget_	incorrect_or_nopress	block6_flicker_shape2_black_counterclockwise_notarget_incorrect_or_nopressloc22_
417	2	6	228	2	2	0	0	28	0	0	622200028	block6_	flicker_	shape2_	white_	counterclockwise_	loc28_	notarget_	incorrect_or_nopress	block6_flicker_shape2_white_counterclockwise_notarget_incorrect_or_nopressloc28_
418	2	6	239	2	1	0	2	39	2	0	622102039	block6_	flicker_	shape2_	black_	counterclockwise_	loc39_	padding_	incorrect_or_nopress	block6_flicker_shape2_black_counterclockwise_padding_incorrect_or_nopressloc39_
419	2	6	233	1	1	0	0	33	0	0	621100033	block6_	flicker_	shape1_	black_	counterclockwise_	loc33_	notarget_	incorrect_or_nopress	block6_flicker_shape1_black_counterclockwise_notarget_incorrect_or_nopressloc33_
420	2	6	256	1	1	0	0	56	0	0	621100056	block6_	flicker_	shape1_	black_	counterclockwise_	loc56_	notarget_	incorrect_or_nopress	block6_flicker_shape1_black_counterclockwise_notarget_incorrect_or_nopressloc56_
421	2	6	234	2	2	0	0	34	0	0	622200034	block6_	flicker_	shape2_	white_	counterclockwise_	loc34_	notarget_	incorrect_or_nopress	block6_flicker_shape2_white_counterclockwise_notarget_incorrect_or_nopressloc34_
422	2	6	254	1	1	0	0	54	0	0	621100054	block6_	flicker_	shape1_	black_	counterclockwise_	loc54_	notarget_	incorrect_or_nopress	block6_flicker_shape1_black_counterclockwise_notarget_incorrect_or_nopressloc54_
423	2	6	212	2	2	0	0	12	0	0	622200012	block6_	flicker_	shape2_	white_	counterclockwise_	loc12_	notarget_	incorrect_or_nopress	block6_flicker_shape2_white_counterclockwise_notarget_incorrect_or_nopressloc12_
424	2	6	260	1	1	0	0	60	0	0	621100060	block6_	flicker_	shape1_	black_	counterclockwise_	loc60_	notarget_	incorrect_or_nopress	block6_flicker_shape1_black_counterclockwise_notarget_incorrect_or_nopressloc60_
425	2	6	247	1	1	0	0	47	0	0	621100047	block6_	flicker_	shape1_	black_	counterclockwise_	loc47_	notarget_	incorrect_or_nopress	block6_flicker_shape1_black_counterclockwise_notarget_incorrect_or_nopressloc47_
426	2	6	219	2	2	0	0	19	0	0	622200019	block6_	flicker_	shape2_	white_	counterclockwise_	loc19_	notarget_	incorrect_or_nopress	block6_flicker_shape2_white_counterclockwise_notarget_incorrect_or_nopressloc19_
427	2	6	262	2	1	0	0	62	0	0	622100062	block6_	flicker_	shape2_	black_	counterclockwise_	loc62_	notarget_	incorrect_or_nopress	block6_flicker_shape2_black_counterclockwise_notarget_incorrect_or_nopressloc62_
428	2	6	252	1	1	0	0	52	0	0	621100052	block6_	flicker_	shape1_	black_	counterclockwise_	loc52_	notarget_	incorrect_or_nopress	block6_flicker_shape1_black_counterclockwise_notarget_incorrect_or_nopressloc52_
429	2	6	223	2	2	0	0	23	0	0	622200023	block6_	flicker_	shape2_	white_	counterclockwise_	loc23_	notarget_	incorrect_or_nopress	block6_flicker_shape2_white_counterclockwise_notarget_incorrect_or_nopressloc23_
430	2	6	229	1	2	0	0	29	0	0	621200029	block6_	flicker_	shape1_	white_	counterclockwise_	loc29_	notarget_	incorrect_or_nopress	block6_flicker_shape1_white_counterclockwise_notarget_incorrect_or_nopressloc29_
431	2	6	221	1	1	0	0	21	0	0	621100021	block6_	flicker_	shape1_	black_	counterclockwise_	loc21_	notarget_	incorrect_or_nopress	block6_flicker_shape1_black_counterclockwise_notarget_incorrect_or_nopressloc21_
432	2	6	218	2	1	0	0	18	0	0	622100018	block6_	flicker_	shape2_	black_	counterclockwise_	loc18_	notarget_	incorrect_or_nopress	block6_flicker_shape2_black_counterclockwise_notarget_incorrect_or_nopressloc18_
433	2	6	205	1	1	0	0	5	0	0	621100005	block6_	flicker_	shape1_	black_	counterclockwise_	loc5_	notarget_	incorrect_or_nopress	block6_flicker_shape1_black_counterclockwise_notarget_incorrect_or_nopressloc5_
434	2	6	248	1	2	0	0	48	0	0	621200048	block6_	flicker_	shape1_	white_	counterclockwise_	loc48_	notarget_	incorrect_or_nopress	block6_flicker_shape1_white_counterclockwise_notarget_incorrect_or_nopressloc48_
435	2	6	230	1	2	0	0	30	0	0	621200030	block6_	flicker_	shape1_	white_	counterclockwise_	loc30_	notarget_	incorrect_or_nopress	block6_flicker_shape1_white_counterclockwise_notarget_incorrect_or_nopressloc30_
436	2	6	203	2	2	0	0	3	0	0	622200003	block6_	flicker_	shape2_	white_	counterclockwise_	loc3_	notarget_	incorrect_or_nopress	block6_flicker_shape2_white_counterclockwise_notarget_incorrect_or_nopressloc3_
437	2	6	231	2	1	0	0	31	0	0	622100031	block6_	flicker_	shape2_	black_	counterclockwise_	loc31_	notarget_	incorrect_or_nopress	block6_flicker_shape2_black_counterclockwise_notarget_incorrect_or_nopressloc31_
438	2	6	222	2	2	0	0	22	0	0	622200022	block6_	flicker_	shape2_	white_	counterclockwise_	loc22_	notarget_	incorrect_or_nopress	block6_flicker_shape2_white_counterclockwise_notarget_incorrect_or_nopressloc22_
439	2	6	261	2	1	0	0	61	0	0	622100061	block6_	flicker_	shape2_	black_	counterclockwise_	loc61_	notarget_	incorrect_or_nopress	block6_flicker_shape2_black_counterclockwise_notarget_incorrect_or_nopressloc61_
440	2	6	241	2	1	0	0	41	0	0	622100041	block6_	flicker_	shape2_	black_	counterclockwise_	loc41_	notarget_	incorrect_or_nopress	block6_flicker_shape2_black_counterclockwise_notarget_incorrect_or_nopressloc41_
441	2	6	217	2	2	0	0	17	0	0	622200017	block6_	flicker_	shape2_	white_	counterclockwise_	loc17_	notarget_	incorrect_or_nopress	block6_flicker_shape2_white_counterclockwise_notarget_incorrect_or_nopressloc17_
442	2	6	241	2	2	0	0	41	0	0	622200041	block6_	flicker_	shape2_	white_	counterclockwise_	loc41_	notarget_	incorrect_or_nopress	block6_flicker_shape2_white_counterclockwise_notarget_incorrect_or_nopressloc41_
443	2	6	226	1	2	0	0	26	0	0	621200026	block6_	flicker_	shape1_	white_	counterclockwise_	loc26_	notarget_	incorrect_or_nopress	block6_flicker_shape1_white_counterclockwise_notarget_incorrect_or_nopressloc26_
444	2	6	259	2	1	0	0	59	0	0	622100059	block6_	flicker_	shape2_	black_	counterclockwise_	loc59_	notarget_	incorrect_or_nopress	block6_flicker_shape2_black_counterclockwise_notarget_incorrect_or_nopressloc59_
445	2	6	227	1	1	0	0	27	0	0	621100027	block6_	flicker_	shape1_	black_	counterclockwise_	loc27_	notarget_	incorrect_or_nopress	block6_flicker_shape1_black_counterclockwise_notarget_incorrect_or_nopressloc27_
446	2	6	213	2	2	0	0	13	0	0	622200013	block6_	flicker_	shape2_	white_	counterclockwise_	loc13_	notarget_	incorrect_or_nopress	block6_flicker_shape2_white_counterclockwise_notarget_incorrect_or_nopressloc13_
447	2	6	207	1	1	0	0	7	0	0	621100007	block6_	flicker_	shape1_	black_	counterclockwise_	loc7_	notarget_	incorrect_or_nopress	block6_flicker_shape1_black_counterclockwise_notarget_incorrect_or_nopressloc7_
448	2	6	238	1	1	0	0	38	0	0	621100038	block6_	flicker_	shape1_	black_	counterclockwise_	loc38_	notarget_	incorrect_or_nopress	block6_flicker_shape1_black_counterclockwise_notarget_incorrect_or_nopressloc38_
449	2	6	226	2	1	0	0	26	0	0	622100026	block6_	flicker_	shape2_	black_	counterclockwise_	loc26_	notarget_	incorrect_or_nopress	block6_flicker_shape2_black_counterclockwise_notarget_incorrect_or_nopressloc26_
450	2	6	201	1	1	0	0	1	0	0	621100001	block6_	flicker_	shape1_	black_	counterclockwise_	loc1_	notarget_	incorrect_or_nopress	block6_flicker_shape1_black_counterclockwise_notarget_incorrect_or_nopressloc1_
451	2	6	221	1	2	0	0	21	0	0	621200021	block6_	flicker_	shape1_	white_	counterclockwise_	loc21_	notarget_	incorrect_or_nopress	block6_flicker_shape1_white_counterclockwise_notarget_incorrect_or_nopressloc21_
452	2	6	202	1	1	0	0	2	0	0	621100002	block6_	flicker_	shape1_	black_	counterclockwise_	loc2_	notarget_	incorrect_or_nopress	block6_flicker_shape1_black_counterclockwise_notarget_incorrect_or_nopressloc2_
453	2	6	223	2	1	0	0	23	0	0	622100023	block6_	flicker_	shape2_	black_	counterclockwise_	loc23_	notarget_	incorrect_or_nopress	block6_flicker_shape2_black_counterclockwise_notarget_incorrect_or_nopressloc23_
454	2	6	228	2	2	0	0	28	0	0	622200028	block6_	flicker_	shape2_	white_	counterclockwise_	loc28_	notarget_	incorrect_or_nopress	block6_flicker_shape2_white_counterclockwise_notarget_incorrect_or_nopressloc28_
455	2	6	230	2	1	0	0	30	0	0	622100030	block6_	flicker_	shape2_	black_	counterclockwise_	loc30_	notarget_	incorrect_or_nopress	block6_flicker_shape2_black_counterclockwise_notarget_incorrect_or_nopressloc30_
456	2	6	230	2	2	0	0	30	0	0	622200030	block6_	flicker_	shape2_	white_	counterclockwise_	loc30_	notarget_	incorrect_or_nopress	block6_flicker_shape2_white_counterclockwise_notarget_incorrect_or_nopressloc30_
457	2	6	256	1	2	0	0	56	0	0	621200056	block6_	flicker_	shape1_	white_	counterclockwise_	loc56_	notarget_	incorrect_or_nopress	block6_flicker_shape1_white_counterclockwise_notarget_incorrect_or_nopressloc56_
458	2	6	204	1	2	0	0	4	0	0	621200004	block6_	flicker_	shape1_	white_	counterclockwise_	loc4_	notarget_	incorrect_or_nopress	block6_flicker_shape1_white_counterclockwise_notarget_incorrect_or_nopressloc4_
459	2	6	204	2	1	0	0	4	0	0	622100004	block6_	flicker_	shape2_	black_	counterclockwise_	loc4_	notarget_	incorrect_or_nopress	block6_flicker_shape2_black_counterclockwise_notarget_incorrect_or_nopressloc4_
460	2	6	243	1	2	0	0	43	0	0	621200043	block6_	flicker_	shape1_	white_	counterclockwise_	loc43_	notarget_	incorrect_or_nopress	block6_flicker_shape1_white_counterclockwise_notarget_incorrect_or_nopressloc43_
461	2	6	222	1	1	0	0	22	0	0	621100022	block6_	flicker_	shape1_	black_	counterclockwise_	loc22_	notarget_	incorrect_or_nopress	block6_flicker_shape1_black_counterclockwise_notarget_incorrect_or_nopressloc22_
462	2	6	257	2	1	0	0	57	0	0	622100057	block6_	flicker_	shape2_	black_	counterclockwise_	loc57_	notarget_	incorrect_or_nopress	block6_flicker_shape2_black_counterclockwise_notarget_incorrect_or_nopressloc57_
463	2	6	253	1	1	0	0	53	0	0	621100053	block6_	flicker_	shape1_	black_	counterclockwise_	loc53_	notarget_	incorrect_or_nopress	block6_flicker_shape1_black_counterclockwise_notarget_incorrect_or_nopressloc53_
464	2	6	251	2	1	0	0	51	0	0	622100051	block6_	flicker_	shape2_	black_	counterclockwise_	loc51_	notarget_	incorrect_or_nopress	block6_flicker_shape2_black_counterclockwise_notarget_incorrect_or_nopressloc51_
465	2	6	261	2	2	0	0	61	0	0	622200061	block6_	flicker_	shape2_	white_	counterclockwise_	loc61_	notarget_	incorrect_or_nopress	block6_flicker_shape2_white_counterclockwise_notarget_incorrect_or_nopressloc61_
466	2	6	211	2	2	0	0	11	0	0	622200011	block6_	flicker_	shape2_	white_	counterclockwise_	loc11_	notarget_	incorrect_or_nopress	block6_flicker_shape2_white_counterclockwise_notarget_incorrect_or_nopressloc11_
467	2	6	202	2	2	0	0	2	0	0	622200002	block6_	flicker_	shape2_	white_	counterclockwise_	loc2_	notarget_	incorrect_or_nopress	block6_flicker_shape2_white_counterclockwise_notarget_incorrect_or_nopressloc2_
468	2	6	242	2	1	0	0	42	0	0	622100042	block6_	flicker_	shape2_	black_	counterclockwise_	loc42_	notarget_	incorrect_or_nopress	block6_flicker_shape2_black_counterclockwise_notarget_incorrect_or_nopressloc42_
469	2	6	251	2	2	0	0	51	0	0	622200051	block6_	flicker_	shape2_	white_	counterclockwise_	loc51_	notarget_	incorrect_or_nopress	block6_flicker_shape2_white_counterclockwise_notarget_incorrect_or_nopressloc51_
470	2	6	206	1	1	0	0	6	0	0	621100006	block6_	flicker_	shape1_	black_	counterclockwise_	loc6_	notarget_	incorrect_or_nopress	block6_flicker_shape1_black_counterclockwise_notarget_incorrect_or_nopressloc6_
471	2	6	217	1	2	0	0	17	0	0	621200017	block6_	flicker_	shape1_	white_	counterclockwise_	loc17_	notarget_	incorrect_or_nopress	block6_flicker_shape1_white_counterclockwise_notarget_incorrect_or_nopressloc17_
472	2	6	201	1	2	0	0	1	0	0	621200001	block6_	flicker_	shape1_	white_	counterclockwise_	loc1_	notarget_	incorrect_or_nopress	block6_flicker_shape1_white_counterclockwise_notarget_incorrect_or_nopressloc1_
473	2	6	202	1	2	0	0	2	0	0	621200002	block6_	flicker_	shape1_	white_	counterclockwise_	loc2_	notarget_	incorrect_or_nopress	block6_flicker_shape1_white_counterclockwise_notarget_incorrect_or_nopressloc2_
474	2	6	238	2	2	0	0	38	0	0	622200038	block6_	flicker_	shape2_	white_	counterclockwise_	loc38_	notarget_	incorrect_or_nopress	block6_flicker_shape2_white_counterclockwise_notarget_incorrect_or_nopressloc38_
475	2	6	214	2	1	0	0	14	0	0	622100014	block6_	flicker_	shape2_	black_	counterclockwise_	loc14_	notarget_	incorrect_or_nopress	block6_flicker_shape2_black_counterclockwise_notarget_incorrect_or_nopressloc14_
476	2	6	253	2	1	0	0	53	0	0	622100053	block6_	flicker_	shape2_	black_	counterclockwise_	loc53_	notarget_	incorrect_or_nopress	block6_flicker_shape2_black_counterclockwise_notarget_incorrect_or_nopressloc53_
477	2	6	237	1	2	0	0	37	0	0	621200037	block6_	flicker_	shape1_	white_	counterclockwise_	loc37_	notarget_	incorrect_or_nopress	block6_flicker_shape1_white_counterclockwise_notarget_incorrect_or_nopressloc37_
478	2	6	209	2	2	0	0	9	0	0	622200009	block6_	flicker_	shape2_	white_	counterclockwise_	loc9_	notarget_	incorrect_or_nopress	block6_flicker_shape2_white_counterclockwise_notarget_incorrect_or_nopressloc9_
479	2	6	209	1	1	0	0	9	0	0	621100009	block6_	flicker_	shape1_	black_	counterclockwise_	loc9_	notarget_	incorrect_or_nopress	block6_flicker_shape1_black_counterclockwise_notarget_incorrect_or_nopressloc9_
480	2	6	251	1	2	0	0	51	0	0	621200051	block6_	flicker_	shape1_	white_	counterclockwise_	loc51_	notarget_	incorrect_or_nopress	block6_flicker_shape1_white_counterclockwise_notarget_incorrect_or_nopressloc51_
481	2	6	236	2	1	0	0	36	0	0	622100036	block6_	flicker_	shape2_	black_	counterclockwise_	loc36_	notarget_	incorrect_or_nopress	block6_flicker_shape2_black_counterclockwise_notarget_incorrect_or_nopressloc36_
482	2	6	210	1	2	0	0	10	0	0	621200010	block6_	flicker_	shape1_	white_	counterclockwise_	loc10_	notarget_	incorrect_or_nopress	block6_flicker_shape1_white_counterclockwise_notarget_incorrect_or_nopressloc10_
483	2	6	244	2	1	0	0	44	0	0	622100044	block6_	flicker_	shape2_	black_	counterclockwise_	loc44_	notarget_	incorrect_or_nopress	block6_flicker_shape2_black_counterclockwise_notarget_incorrect_or_nopressloc44_
484	2	6	219	1	1	0	0	19	0	0	621100019	block6_	flicker_	shape1_	black_	counterclockwise_	loc19_	notarget_	incorrect_or_nopress	block6_flicker_shape1_black_counterclockwise_notarget_incorrect_or_nopressloc19_
485	2	6	204	1	1	0	0	4	0	0	621100004	block6_	flicker_	shape1_	black_	counterclockwise_	loc4_	notarget_	incorrect_or_nopress	block6_flicker_shape1_black_counterclockwise_notarget_incorrect_or_nopressloc4_
486	2	6	248	1	1	0	0	48	0	0	621100048	block6_	flicker_	shape1_	black_	counterclockwise_	loc48_	notarget_	incorrect_or_nopress	block6_flicker_shape1_black_counterclockwise_notarget_incorrect_or_nopressloc48_
