	trial_type	block_num	trialID	shape	colour	direction	istarget	start_loc	target_position	accuracy_or_button	unique_ID	block_num_mod	trial_type_mod	shape_mod	colour_mod	direction_mod	start_loc_mod	istarget_mod	accuracy_or_button_mod	condition_name
0	1	4	129	2	2	1	0	1	0	0	412210001	block4_	disappearance_	shape2_	white_	clockwise_	loc1_	notarget_	incorrect_or_nopress	block4_disappearance_shape2_white_clockwise_notarget_incorrect_or_nopressloc1_
1	1	4	119	2	1	2	1	3	18	1	412121103	block4_	disappearance_	shape2_	black_	counterclockwise_	loc3_	istarget_	correct_or_press	block4_disappearance_shape2_black_counterclockwise_istarget_correct_or_pressloc3_
2	1	4	114	1	2	1	1	2	16	1	411211102	block4_	disappearance_	shape1_	white_	clockwise_	loc2_	istarget_	correct_or_press	block4_disappearance_shape1_white_clockwise_istarget_correct_or_pressloc2_
3	1	4	125	2	2	2	1	1	15	1	412221101	block4_	disappearance_	shape2_	white_	counterclockwise_	loc1_	istarget_	correct_or_press	block4_disappearance_shape2_white_counterclockwise_istarget_correct_or_pressloc1_
4	1	4	116	1	2	1	0	4	0	1	411210104	block4_	disappearance_	shape1_	white_	clockwise_	loc4_	notarget_	correct_or_press	block4_disappearance_shape1_white_clockwise_notarget_correct_or_pressloc4_
5	1	4	126	2	2	2	0	2	0	1	412220102	block4_	disappearance_	shape2_	white_	counterclockwise_	loc2_	notarget_	correct_or_press	block4_disappearance_shape2_white_counterclockwise_notarget_correct_or_pressloc2_
6	1	4	121	2	1	1	1	1	21	1	412111101	block4_	disappearance_	shape2_	black_	clockwise_	loc1_	istarget_	correct_or_press	block4_disappearance_shape2_black_clockwise_istarget_correct_or_pressloc1_
7	1	4	124	2	1	1	1	4	17	1	412111104	block4_	disappearance_	shape2_	black_	clockwise_	loc4_	istarget_	correct_or_press	block4_disappearance_shape2_black_clockwise_istarget_correct_or_pressloc4_
8	1	4	122	2	1	1	0	2	0	1	412110102	block4_	disappearance_	shape2_	black_	clockwise_	loc2_	notarget_	correct_or_press	block4_disappearance_shape2_black_clockwise_notarget_correct_or_pressloc2_
9	1	4	110	1	2	2	0	2	0	1	411220102	block4_	disappearance_	shape1_	white_	counterclockwise_	loc2_	notarget_	correct_or_press	block4_disappearance_shape1_white_counterclockwise_notarget_correct_or_pressloc2_
10	1	4	118	2	1	2	0	2	0	1	412120102	block4_	disappearance_	shape2_	black_	counterclockwise_	loc2_	notarget_	correct_or_press	block4_disappearance_shape2_black_counterclockwise_notarget_correct_or_pressloc2_
11	1	4	131	2	2	1	0	3	0	1	412210103	block4_	disappearance_	shape2_	white_	clockwise_	loc3_	notarget_	correct_or_press	block4_disappearance_shape2_white_clockwise_notarget_correct_or_pressloc3_
12	1	4	105	1	1	1	0	1	0	1	411110101	block4_	disappearance_	shape1_	black_	clockwise_	loc1_	notarget_	correct_or_press	block4_disappearance_shape1_black_clockwise_notarget_correct_or_pressloc1_
13	1	4	101	1	1	2	0	1	0	1	411120101	block4_	disappearance_	shape1_	black_	counterclockwise_	loc1_	notarget_	correct_or_press	block4_disappearance_shape1_black_counterclockwise_notarget_correct_or_pressloc1_
14	1	4	106	1	1	1	1	2	20	1	411111102	block4_	disappearance_	shape1_	black_	clockwise_	loc2_	istarget_	correct_or_press	block4_disappearance_shape1_black_clockwise_istarget_correct_or_pressloc2_
15	1	4	117	2	1	2	0	1	0	1	412120101	block4_	disappearance_	shape2_	black_	counterclockwise_	loc1_	notarget_	correct_or_press	block4_disappearance_shape2_black_counterclockwise_notarget_correct_or_pressloc1_
16	1	4	123	2	1	1	0	3	0	1	412110103	block4_	disappearance_	shape2_	black_	clockwise_	loc3_	notarget_	correct_or_press	block4_disappearance_shape2_black_clockwise_notarget_correct_or_pressloc3_
17	1	4	114	1	2	1	0	2	0	1	411210102	block4_	disappearance_	shape1_	white_	clockwise_	loc2_	notarget_	correct_or_press	block4_disappearance_shape1_white_clockwise_notarget_correct_or_pressloc2_
18	1	4	124	2	1	1	0	4	0	1	412110104	block4_	disappearance_	shape2_	black_	clockwise_	loc4_	notarget_	correct_or_press	block4_disappearance_shape2_black_clockwise_notarget_correct_or_pressloc4_
19	1	4	130	2	2	1	0	2	0	1	412210102	block4_	disappearance_	shape2_	white_	clockwise_	loc2_	notarget_	correct_or_press	block4_disappearance_shape2_white_clockwise_notarget_correct_or_pressloc2_
20	1	4	111	1	2	2	1	3	18	1	411221103	block4_	disappearance_	shape1_	white_	counterclockwise_	loc3_	istarget_	correct_or_press	block4_disappearance_shape1_white_counterclockwise_istarget_correct_or_pressloc3_
21	1	4	123	2	1	1	0	3	0	1	412110103	block4_	disappearance_	shape2_	black_	clockwise_	loc3_	notarget_	correct_or_press	block4_disappearance_shape2_black_clockwise_notarget_correct_or_pressloc3_
22	1	4	108	1	1	1	0	4	0	1	411110104	block4_	disappearance_	shape1_	black_	clockwise_	loc4_	notarget_	correct_or_press	block4_disappearance_shape1_black_clockwise_notarget_correct_or_pressloc4_
23	1	4	109	1	2	2	0	1	0	1	411220101	block4_	disappearance_	shape1_	white_	counterclockwise_	loc1_	notarget_	correct_or_press	block4_disappearance_shape1_white_counterclockwise_notarget_correct_or_pressloc1_
24	1	4	110	1	2	2	0	2	0	1	411220102	block4_	disappearance_	shape1_	white_	counterclockwise_	loc2_	notarget_	correct_or_press	block4_disappearance_shape1_white_counterclockwise_notarget_correct_or_pressloc2_
25	1	4	111	1	2	2	0	3	0	1	411220103	block4_	disappearance_	shape1_	white_	counterclockwise_	loc3_	notarget_	correct_or_press	block4_disappearance_shape1_white_counterclockwise_notarget_correct_or_pressloc3_
26	1	4	120	2	1	2	0	4	0	1	412120104	block4_	disappearance_	shape2_	black_	counterclockwise_	loc4_	notarget_	correct_or_press	block4_disappearance_shape2_black_counterclockwise_notarget_correct_or_pressloc4_
27	1	4	122	2	1	1	0	2	0	1	412110102	block4_	disappearance_	shape2_	black_	clockwise_	loc2_	notarget_	correct_or_press	block4_disappearance_shape2_black_clockwise_notarget_correct_or_pressloc2_
28	1	4	104	1	1	2	1	4	20	1	411121104	block4_	disappearance_	shape1_	black_	counterclockwise_	loc4_	istarget_	correct_or_press	block4_disappearance_shape1_black_counterclockwise_istarget_correct_or_pressloc4_
29	1	4	106	1	1	1	0	2	0	1	411110102	block4_	disappearance_	shape1_	black_	clockwise_	loc2_	notarget_	correct_or_press	block4_disappearance_shape1_black_clockwise_notarget_correct_or_pressloc2_
30	1	4	127	2	2	2	1	3	18	1	412221103	block4_	disappearance_	shape2_	white_	counterclockwise_	loc3_	istarget_	correct_or_press	block4_disappearance_shape2_white_counterclockwise_istarget_correct_or_pressloc3_
31	1	4	123	2	1	1	1	3	20	1	412111103	block4_	disappearance_	shape2_	black_	clockwise_	loc3_	istarget_	correct_or_press	block4_disappearance_shape2_black_clockwise_istarget_correct_or_pressloc3_
32	1	4	115	1	2	1	1	3	17	1	411211103	block4_	disappearance_	shape1_	white_	clockwise_	loc3_	istarget_	correct_or_press	block4_disappearance_shape1_white_clockwise_istarget_correct_or_pressloc3_
33	1	4	107	1	1	1	0	3	0	1	411110103	block4_	disappearance_	shape1_	black_	clockwise_	loc3_	notarget_	correct_or_press	block4_disappearance_shape1_black_clockwise_notarget_correct_or_pressloc3_
34	1	4	111	1	2	2	0	3	0	1	411220103	block4_	disappearance_	shape1_	white_	counterclockwise_	loc3_	notarget_	correct_or_press	block4_disappearance_shape1_white_counterclockwise_notarget_correct_or_pressloc3_
35	1	4	122	2	1	1	0	2	0	1	412110102	block4_	disappearance_	shape2_	black_	clockwise_	loc2_	notarget_	correct_or_press	block4_disappearance_shape2_black_clockwise_notarget_correct_or_pressloc2_
36	1	4	128	2	2	2	0	4	0	1	412220104	block4_	disappearance_	shape2_	white_	counterclockwise_	loc4_	notarget_	correct_or_press	block4_disappearance_shape2_white_counterclockwise_notarget_correct_or_pressloc4_
37	1	4	130	2	2	1	0	2	0	1	412210102	block4_	disappearance_	shape2_	white_	clockwise_	loc2_	notarget_	correct_or_press	block4_disappearance_shape2_white_clockwise_notarget_correct_or_pressloc2_
38	1	4	115	1	2	1	0	3	0	1	411210103	block4_	disappearance_	shape1_	white_	clockwise_	loc3_	notarget_	correct_or_press	block4_disappearance_shape1_white_clockwise_notarget_correct_or_pressloc3_
39	1	4	106	1	1	1	0	2	0	1	411110102	block4_	disappearance_	shape1_	black_	clockwise_	loc2_	notarget_	correct_or_press	block4_disappearance_shape1_black_clockwise_notarget_correct_or_pressloc2_
40	1	4	118	2	1	2	0	2	0	1	412120102	block4_	disappearance_	shape2_	black_	counterclockwise_	loc2_	notarget_	correct_or_press	block4_disappearance_shape2_black_counterclockwise_notarget_correct_or_pressloc2_
41	1	4	126	2	2	2	0	2	0	1	412220102	block4_	disappearance_	shape2_	white_	counterclockwise_	loc2_	notarget_	correct_or_press	block4_disappearance_shape2_white_counterclockwise_notarget_correct_or_pressloc2_
42	1	4	104	1	1	2	0	4	0	1	411120104	block4_	disappearance_	shape1_	black_	counterclockwise_	loc4_	notarget_	correct_or_press	block4_disappearance_shape1_black_counterclockwise_notarget_correct_or_pressloc4_
43	1	4	118	2	1	2	0	2	0	1	412120102	block4_	disappearance_	shape2_	black_	counterclockwise_	loc2_	notarget_	correct_or_press	block4_disappearance_shape2_black_counterclockwise_notarget_correct_or_pressloc2_
44	1	4	106	1	1	1	0	2	0	1	411110102	block4_	disappearance_	shape1_	black_	clockwise_	loc2_	notarget_	correct_or_press	block4_disappearance_shape1_black_clockwise_notarget_correct_or_pressloc2_
45	1	4	132	2	2	1	0	4	0	1	412210104	block4_	disappearance_	shape2_	white_	clockwise_	loc4_	notarget_	correct_or_press	block4_disappearance_shape2_white_clockwise_notarget_correct_or_pressloc4_
46	1	4	119	2	1	2	1	3	13	1	412121103	block4_	disappearance_	shape2_	black_	counterclockwise_	loc3_	istarget_	correct_or_press	block4_disappearance_shape2_black_counterclockwise_istarget_correct_or_pressloc3_
47	1	4	112	1	2	2	0	4	0	1	411220104	block4_	disappearance_	shape1_	white_	counterclockwise_	loc4_	notarget_	correct_or_press	block4_disappearance_shape1_white_counterclockwise_notarget_correct_or_pressloc4_
48	1	4	117	2	1	2	1	1	16	1	412121101	block4_	disappearance_	shape2_	black_	counterclockwise_	loc1_	istarget_	correct_or_press	block4_disappearance_shape2_black_counterclockwise_istarget_correct_or_pressloc1_
49	1	4	130	2	2	1	0	2	0	1	412210102	block4_	disappearance_	shape2_	white_	clockwise_	loc2_	notarget_	correct_or_press	block4_disappearance_shape2_white_clockwise_notarget_correct_or_pressloc2_
50	1	4	120	2	1	2	0	4	0	1	412120104	block4_	disappearance_	shape2_	black_	counterclockwise_	loc4_	notarget_	correct_or_press	block4_disappearance_shape2_black_counterclockwise_notarget_correct_or_pressloc4_
51	1	4	114	1	2	1	0	2	0	1	411210102	block4_	disappearance_	shape1_	white_	clockwise_	loc2_	notarget_	correct_or_press	block4_disappearance_shape1_white_clockwise_notarget_correct_or_pressloc2_
52	1	4	119	2	1	2	0	3	0	1	412120103	block4_	disappearance_	shape2_	black_	counterclockwise_	loc3_	notarget_	correct_or_press	block4_disappearance_shape2_black_counterclockwise_notarget_correct_or_pressloc3_
53	1	4	116	1	2	1	0	4	0	1	411210104	block4_	disappearance_	shape1_	white_	clockwise_	loc4_	notarget_	correct_or_press	block4_disappearance_shape1_white_clockwise_notarget_correct_or_pressloc4_
54	1	4	127	2	2	2	0	3	0	1	412220103	block4_	disappearance_	shape2_	white_	counterclockwise_	loc3_	notarget_	correct_or_press	block4_disappearance_shape2_white_counterclockwise_notarget_correct_or_pressloc3_
55	1	4	109	1	2	2	0	1	0	1	411220101	block4_	disappearance_	shape1_	white_	counterclockwise_	loc1_	notarget_	correct_or_press	block4_disappearance_shape1_white_counterclockwise_notarget_correct_or_pressloc1_
56	1	4	125	2	2	2	0	1	0	1	412220101	block4_	disappearance_	shape2_	white_	counterclockwise_	loc1_	notarget_	correct_or_press	block4_disappearance_shape2_white_counterclockwise_notarget_correct_or_pressloc1_
57	1	4	119	2	1	2	0	3	0	1	412120103	block4_	disappearance_	shape2_	black_	counterclockwise_	loc3_	notarget_	correct_or_press	block4_disappearance_shape2_black_counterclockwise_notarget_correct_or_pressloc3_
58	1	4	125	2	2	2	0	1	0	1	412220101	block4_	disappearance_	shape2_	white_	counterclockwise_	loc1_	notarget_	correct_or_press	block4_disappearance_shape2_white_counterclockwise_notarget_correct_or_pressloc1_
59	1	4	105	1	1	1	0	1	0	1	411110101	block4_	disappearance_	shape1_	black_	clockwise_	loc1_	notarget_	correct_or_press	block4_disappearance_shape1_black_clockwise_notarget_correct_or_pressloc1_
60	1	4	118	2	1	2	1	2	15	1	412121102	block4_	disappearance_	shape2_	black_	counterclockwise_	loc2_	istarget_	correct_or_press	block4_disappearance_shape2_black_counterclockwise_istarget_correct_or_pressloc2_
61	1	4	121	2	1	1	0	1	0	1	412110101	block4_	disappearance_	shape2_	black_	clockwise_	loc1_	notarget_	correct_or_press	block4_disappearance_shape2_black_clockwise_notarget_correct_or_pressloc1_
62	1	4	101	1	1	2	0	1	0	1	411120101	block4_	disappearance_	shape1_	black_	counterclockwise_	loc1_	notarget_	correct_or_press	block4_disappearance_shape1_black_counterclockwise_notarget_correct_or_pressloc1_
63	1	4	114	1	2	1	0	2	0	1	411210102	block4_	disappearance_	shape1_	white_	clockwise_	loc2_	notarget_	correct_or_press	block4_disappearance_shape1_white_clockwise_notarget_correct_or_pressloc2_
64	1	4	132	2	2	1	0	4	0	1	412210104	block4_	disappearance_	shape2_	white_	clockwise_	loc4_	notarget_	correct_or_press	block4_disappearance_shape2_white_clockwise_notarget_correct_or_pressloc4_
65	1	4	102	1	1	2	0	2	0	1	411120102	block4_	disappearance_	shape1_	black_	counterclockwise_	loc2_	notarget_	correct_or_press	block4_disappearance_shape1_black_counterclockwise_notarget_correct_or_pressloc2_
66	1	4	129	2	2	1	0	1	0	1	412210101	block4_	disappearance_	shape2_	white_	clockwise_	loc1_	notarget_	correct_or_press	block4_disappearance_shape2_white_clockwise_notarget_correct_or_pressloc1_
67	1	4	112	1	2	2	0	4	0	1	411220104	block4_	disappearance_	shape1_	white_	counterclockwise_	loc4_	notarget_	correct_or_press	block4_disappearance_shape1_white_counterclockwise_notarget_correct_or_pressloc4_
68	1	4	113	1	2	1	0	1	0	1	411210101	block4_	disappearance_	shape1_	white_	clockwise_	loc1_	notarget_	correct_or_press	block4_disappearance_shape1_white_clockwise_notarget_correct_or_pressloc1_
69	1	4	121	2	1	1	0	1	0	1	412110101	block4_	disappearance_	shape2_	black_	clockwise_	loc1_	notarget_	correct_or_press	block4_disappearance_shape2_black_clockwise_notarget_correct_or_pressloc1_
70	1	4	109	1	2	2	0	1	0	1	411220101	block4_	disappearance_	shape1_	white_	counterclockwise_	loc1_	notarget_	correct_or_press	block4_disappearance_shape1_white_counterclockwise_notarget_correct_or_pressloc1_
71	1	4	116	1	2	1	1	4	9	1	411211104	block4_	disappearance_	shape1_	white_	clockwise_	loc4_	istarget_	correct_or_press	block4_disappearance_shape1_white_clockwise_istarget_correct_or_pressloc4_
72	1	4	131	2	2	1	0	3	0	1	412210103	block4_	disappearance_	shape2_	white_	clockwise_	loc3_	notarget_	correct_or_press	block4_disappearance_shape2_white_clockwise_notarget_correct_or_pressloc3_
73	1	4	104	1	1	2	0	4	0	1	411120104	block4_	disappearance_	shape1_	black_	counterclockwise_	loc4_	notarget_	correct_or_press	block4_disappearance_shape1_black_counterclockwise_notarget_correct_or_pressloc4_
74	1	4	107	1	1	1	0	3	0	1	411110103	block4_	disappearance_	shape1_	black_	clockwise_	loc3_	notarget_	correct_or_press	block4_disappearance_shape1_black_clockwise_notarget_correct_or_pressloc3_
75	1	4	128	2	2	2	0	4	0	1	412220104	block4_	disappearance_	shape2_	white_	counterclockwise_	loc4_	notarget_	correct_or_press	block4_disappearance_shape2_white_counterclockwise_notarget_correct_or_pressloc4_
76	1	4	127	2	2	2	0	3	0	1	412220103	block4_	disappearance_	shape2_	white_	counterclockwise_	loc3_	notarget_	correct_or_press	block4_disappearance_shape2_white_counterclockwise_notarget_correct_or_pressloc3_
77	1	4	105	1	1	1	1	1	18	1	411111101	block4_	disappearance_	shape1_	black_	clockwise_	loc1_	istarget_	correct_or_press	block4_disappearance_shape1_black_clockwise_istarget_correct_or_pressloc1_
78	1	4	103	1	1	2	0	3	0	1	411120103	block4_	disappearance_	shape1_	black_	counterclockwise_	loc3_	notarget_	correct_or_press	block4_disappearance_shape1_black_counterclockwise_notarget_correct_or_pressloc3_
79	1	4	103	1	1	2	0	3	0	1	411120103	block4_	disappearance_	shape1_	black_	counterclockwise_	loc3_	notarget_	correct_or_press	block4_disappearance_shape1_black_counterclockwise_notarget_correct_or_pressloc3_
80	1	4	129	2	2	1	0	1	0	1	412210101	block4_	disappearance_	shape2_	white_	clockwise_	loc1_	notarget_	correct_or_press	block4_disappearance_shape2_white_clockwise_notarget_correct_or_pressloc1_
81	1	4	123	2	1	1	0	3	0	1	412110103	block4_	disappearance_	shape2_	black_	clockwise_	loc3_	notarget_	correct_or_press	block4_disappearance_shape2_black_clockwise_notarget_correct_or_pressloc3_
82	1	4	104	1	1	2	0	4	0	1	411120104	block4_	disappearance_	shape1_	black_	counterclockwise_	loc4_	notarget_	correct_or_press	block4_disappearance_shape1_black_counterclockwise_notarget_correct_or_pressloc4_
83	1	4	112	1	2	2	0	4	0	1	411220104	block4_	disappearance_	shape1_	white_	counterclockwise_	loc4_	notarget_	correct_or_press	block4_disappearance_shape1_white_counterclockwise_notarget_correct_or_pressloc4_
84	1	4	119	2	1	2	0	3	0	1	412120103	block4_	disappearance_	shape2_	black_	counterclockwise_	loc3_	notarget_	correct_or_press	block4_disappearance_shape2_black_counterclockwise_notarget_correct_or_pressloc3_
85	1	4	113	1	2	1	0	1	0	1	411210101	block4_	disappearance_	shape1_	white_	clockwise_	loc1_	notarget_	correct_or_press	block4_disappearance_shape1_white_clockwise_notarget_correct_or_pressloc1_
86	1	4	113	1	2	1	0	1	0	1	411210101	block4_	disappearance_	shape1_	white_	clockwise_	loc1_	notarget_	correct_or_press	block4_disappearance_shape1_white_clockwise_notarget_correct_or_pressloc1_
87	1	4	131	2	2	1	0	3	0	1	412210103	block4_	disappearance_	shape2_	white_	clockwise_	loc3_	notarget_	correct_or_press	block4_disappearance_shape2_white_clockwise_notarget_correct_or_pressloc3_
88	1	4	103	1	1	2	0	3	0	1	411120103	block4_	disappearance_	shape1_	black_	counterclockwise_	loc3_	notarget_	correct_or_press	block4_disappearance_shape1_black_counterclockwise_notarget_correct_or_pressloc3_
89	1	4	115	1	2	1	0	3	0	1	411210103	block4_	disappearance_	shape1_	white_	clockwise_	loc3_	notarget_	correct_or_press	block4_disappearance_shape1_white_clockwise_notarget_correct_or_pressloc3_
90	1	4	108	1	1	1	0	4	0	1	411110104	block4_	disappearance_	shape1_	black_	clockwise_	loc4_	notarget_	correct_or_press	block4_disappearance_shape1_black_clockwise_notarget_correct_or_pressloc4_
91	1	4	102	1	1	2	0	2	0	1	411120102	block4_	disappearance_	shape1_	black_	counterclockwise_	loc2_	notarget_	correct_or_press	block4_disappearance_shape1_black_counterclockwise_notarget_correct_or_pressloc2_
92	1	4	107	1	1	1	0	3	0	1	411110103	block4_	disappearance_	shape1_	black_	clockwise_	loc3_	notarget_	correct_or_press	block4_disappearance_shape1_black_clockwise_notarget_correct_or_pressloc3_
93	1	4	125	2	2	2	0	1	0	1	412220101	block4_	disappearance_	shape2_	white_	counterclockwise_	loc1_	notarget_	correct_or_press	block4_disappearance_shape2_white_counterclockwise_notarget_correct_or_pressloc1_
94	1	4	108	1	1	1	0	4	0	1	411110104	block4_	disappearance_	shape1_	black_	clockwise_	loc4_	notarget_	correct_or_press	block4_disappearance_shape1_black_clockwise_notarget_correct_or_pressloc4_
95	1	4	105	1	1	1	0	1	0	1	411110101	block4_	disappearance_	shape1_	black_	clockwise_	loc1_	notarget_	correct_or_press	block4_disappearance_shape1_black_clockwise_notarget_correct_or_pressloc1_
96	1	4	124	2	1	1	0	4	0	1	412110104	block4_	disappearance_	shape2_	black_	clockwise_	loc4_	notarget_	correct_or_press	block4_disappearance_shape2_black_clockwise_notarget_correct_or_pressloc4_
97	1	4	116	1	2	1	0	4	0	1	411210104	block4_	disappearance_	shape1_	white_	clockwise_	loc4_	notarget_	correct_or_press	block4_disappearance_shape1_white_clockwise_notarget_correct_or_pressloc4_
98	1	4	128	2	2	2	1	4	13	1	412221104	block4_	disappearance_	shape2_	white_	counterclockwise_	loc4_	istarget_	correct_or_press	block4_disappearance_shape2_white_counterclockwise_istarget_correct_or_pressloc4_
99	1	4	115	1	2	1	0	3	0	1	411210103	block4_	disappearance_	shape1_	white_	clockwise_	loc3_	notarget_	correct_or_press	block4_disappearance_shape1_white_clockwise_notarget_correct_or_pressloc3_
100	1	4	120	2	1	2	0	4	0	1	412120104	block4_	disappearance_	shape2_	black_	counterclockwise_	loc4_	notarget_	correct_or_press	block4_disappearance_shape2_black_counterclockwise_notarget_correct_or_pressloc4_
101	1	4	126	2	2	2	0	2	0	1	412220102	block4_	disappearance_	shape2_	white_	counterclockwise_	loc2_	notarget_	correct_or_press	block4_disappearance_shape2_white_counterclockwise_notarget_correct_or_pressloc2_
102	1	4	110	1	2	2	0	2	0	1	411220102	block4_	disappearance_	shape1_	white_	counterclockwise_	loc2_	notarget_	correct_or_press	block4_disappearance_shape1_white_counterclockwise_notarget_correct_or_pressloc2_
103	1	4	117	2	1	2	0	1	0	1	412120101	block4_	disappearance_	shape2_	black_	counterclockwise_	loc1_	notarget_	correct_or_press	block4_disappearance_shape2_black_counterclockwise_notarget_correct_or_pressloc1_
104	1	4	132	2	2	1	0	4	0	1	412210104	block4_	disappearance_	shape2_	white_	clockwise_	loc4_	notarget_	correct_or_press	block4_disappearance_shape2_white_clockwise_notarget_correct_or_pressloc4_
105	1	4	128	2	2	2	0	4	0	1	412220104	block4_	disappearance_	shape2_	white_	counterclockwise_	loc4_	notarget_	correct_or_press	block4_disappearance_shape2_white_counterclockwise_notarget_correct_or_pressloc4_
106	1	4	117	2	1	2	0	1	0	1	412120101	block4_	disappearance_	shape2_	black_	counterclockwise_	loc1_	notarget_	correct_or_press	block4_disappearance_shape2_black_counterclockwise_notarget_correct_or_pressloc1_
107	1	4	127	2	2	2	0	3	0	1	412220103	block4_	disappearance_	shape2_	white_	counterclockwise_	loc3_	notarget_	correct_or_press	block4_disappearance_shape2_white_counterclockwise_notarget_correct_or_pressloc3_
108	1	4	124	2	1	1	0	4	0	1	412110104	block4_	disappearance_	shape2_	black_	clockwise_	loc4_	notarget_	correct_or_press	block4_disappearance_shape2_black_clockwise_notarget_correct_or_pressloc4_
109	1	4	102	1	1	2	0	2	0	1	411120102	block4_	disappearance_	shape1_	black_	counterclockwise_	loc2_	notarget_	correct_or_press	block4_disappearance_shape1_black_counterclockwise_notarget_correct_or_pressloc2_
110	1	4	121	2	1	1	0	1	0	1	412110101	block4_	disappearance_	shape2_	black_	clockwise_	loc1_	notarget_	correct_or_press	block4_disappearance_shape2_black_clockwise_notarget_correct_or_pressloc1_
111	1	4	107	1	1	1	1	3	10	1	411111103	block4_	disappearance_	shape1_	black_	clockwise_	loc3_	istarget_	correct_or_press	block4_disappearance_shape1_black_clockwise_istarget_correct_or_pressloc3_
112	1	4	101	1	1	2	0	1	0	1	411120101	block4_	disappearance_	shape1_	black_	counterclockwise_	loc1_	notarget_	correct_or_press	block4_disappearance_shape1_black_counterclockwise_notarget_correct_or_pressloc1_
113	1	4	111	1	2	2	0	3	0	1	411220103	block4_	disappearance_	shape1_	white_	counterclockwise_	loc3_	notarget_	correct_or_press	block4_disappearance_shape1_white_counterclockwise_notarget_correct_or_pressloc3_
114	2	4	224	1	1	0	2	24	2	0	421102024	block4_	flicker_	shape1_	black_	counterclockwise_	loc24_	padding_	incorrect_or_nopress	block4_flicker_shape1_black_counterclockwise_padding_incorrect_or_nopressloc24_
115	2	4	262	2	1	0	0	62	0	0	422100062	block4_	flicker_	shape2_	black_	counterclockwise_	loc62_	notarget_	incorrect_or_nopress	block4_flicker_shape2_black_counterclockwise_notarget_incorrect_or_nopressloc62_
116	2	4	214	1	2	0	0	14	0	0	421200014	block4_	flicker_	shape1_	white_	counterclockwise_	loc14_	notarget_	incorrect_or_nopress	block4_flicker_shape1_white_counterclockwise_notarget_incorrect_or_nopressloc14_
117	2	4	231	1	1	0	0	31	0	0	421100031	block4_	flicker_	shape1_	black_	counterclockwise_	loc31_	notarget_	incorrect_or_nopress	block4_flicker_shape1_black_counterclockwise_notarget_incorrect_or_nopressloc31_
118	2	4	248	1	2	0	0	48	0	0	421200048	block4_	flicker_	shape1_	white_	counterclockwise_	loc48_	notarget_	incorrect_or_nopress	block4_flicker_shape1_white_counterclockwise_notarget_incorrect_or_nopressloc48_
119	2	4	201	2	1	0	0	1	0	0	422100001	block4_	flicker_	shape2_	black_	counterclockwise_	loc1_	notarget_	incorrect_or_nopress	block4_flicker_shape2_black_counterclockwise_notarget_incorrect_or_nopressloc1_
120	2	4	230	1	1	0	0	30	0	0	421100030	block4_	flicker_	shape1_	black_	counterclockwise_	loc30_	notarget_	incorrect_or_nopress	block4_flicker_shape1_black_counterclockwise_notarget_incorrect_or_nopressloc30_
121	2	4	237	1	2	0	0	37	0	0	421200037	block4_	flicker_	shape1_	white_	counterclockwise_	loc37_	notarget_	incorrect_or_nopress	block4_flicker_shape1_white_counterclockwise_notarget_incorrect_or_nopressloc37_
122	2	4	209	1	2	0	0	9	0	0	421200009	block4_	flicker_	shape1_	white_	counterclockwise_	loc9_	notarget_	incorrect_or_nopress	block4_flicker_shape1_white_counterclockwise_notarget_incorrect_or_nopressloc9_
123	2	4	253	1	1	0	0	53	0	0	421100053	block4_	flicker_	shape1_	black_	counterclockwise_	loc53_	notarget_	incorrect_or_nopress	block4_flicker_shape1_black_counterclockwise_notarget_incorrect_or_nopressloc53_
124	2	4	229	1	2	0	0	29	0	0	421200029	block4_	flicker_	shape1_	white_	counterclockwise_	loc29_	notarget_	incorrect_or_nopress	block4_flicker_shape1_white_counterclockwise_notarget_incorrect_or_nopressloc29_
125	2	4	264	2	2	0	0	64	0	0	422200064	block4_	flicker_	shape2_	white_	counterclockwise_	loc64_	notarget_	incorrect_or_nopress	block4_flicker_shape2_white_counterclockwise_notarget_incorrect_or_nopressloc64_
126	2	4	254	1	2	0	0	54	0	0	421200054	block4_	flicker_	shape1_	white_	counterclockwise_	loc54_	notarget_	incorrect_or_nopress	block4_flicker_shape1_white_counterclockwise_notarget_incorrect_or_nopressloc54_
127	2	4	233	2	2	0	0	33	0	0	422200033	block4_	flicker_	shape2_	white_	counterclockwise_	loc33_	notarget_	incorrect_or_nopress	block4_flicker_shape2_white_counterclockwise_notarget_incorrect_or_nopressloc33_
128	2	4	233	2	1	0	0	33	0	0	422100033	block4_	flicker_	shape2_	black_	counterclockwise_	loc33_	notarget_	incorrect_or_nopress	block4_flicker_shape2_black_counterclockwise_notarget_incorrect_or_nopressloc33_
129	2	4	254	2	1	0	0	54	0	0	422100054	block4_	flicker_	shape2_	black_	counterclockwise_	loc54_	notarget_	incorrect_or_nopress	block4_flicker_shape2_black_counterclockwise_notarget_incorrect_or_nopressloc54_
130	2	4	215	2	2	0	0	15	0	0	422200015	block4_	flicker_	shape2_	white_	counterclockwise_	loc15_	notarget_	incorrect_or_nopress	block4_flicker_shape2_white_counterclockwise_notarget_incorrect_or_nopressloc15_
131	2	4	243	1	2	0	0	43	0	0	421200043	block4_	flicker_	shape1_	white_	counterclockwise_	loc43_	notarget_	incorrect_or_nopress	block4_flicker_shape1_white_counterclockwise_notarget_incorrect_or_nopressloc43_
132	2	4	252	2	1	0	0	52	0	0	422100052	block4_	flicker_	shape2_	black_	counterclockwise_	loc52_	notarget_	incorrect_or_nopress	block4_flicker_shape2_black_counterclockwise_notarget_incorrect_or_nopressloc52_
133	2	4	234	2	2	0	0	34	0	0	422200034	block4_	flicker_	shape2_	white_	counterclockwise_	loc34_	notarget_	incorrect_or_nopress	block4_flicker_shape2_white_counterclockwise_notarget_incorrect_or_nopressloc34_
134	2	4	203	2	2	0	0	3	0	0	422200003	block4_	flicker_	shape2_	white_	counterclockwise_	loc3_	notarget_	incorrect_or_nopress	block4_flicker_shape2_white_counterclockwise_notarget_incorrect_or_nopressloc3_
135	2	4	210	2	1	0	0	10	0	0	422100010	block4_	flicker_	shape2_	black_	counterclockwise_	loc10_	notarget_	incorrect_or_nopress	block4_flicker_shape2_black_counterclockwise_notarget_incorrect_or_nopressloc10_
136	2	4	207	1	1	0	0	7	0	0	421100007	block4_	flicker_	shape1_	black_	counterclockwise_	loc7_	notarget_	incorrect_or_nopress	block4_flicker_shape1_black_counterclockwise_notarget_incorrect_or_nopressloc7_
137	2	4	243	2	2	0	0	43	0	0	422200043	block4_	flicker_	shape2_	white_	counterclockwise_	loc43_	notarget_	incorrect_or_nopress	block4_flicker_shape2_white_counterclockwise_notarget_incorrect_or_nopressloc43_
138	2	4	208	2	2	0	0	8	0	0	422200008	block4_	flicker_	shape2_	white_	counterclockwise_	loc8_	notarget_	incorrect_or_nopress	block4_flicker_shape2_white_counterclockwise_notarget_incorrect_or_nopressloc8_
139	2	4	210	2	2	0	0	10	0	0	422200010	block4_	flicker_	shape2_	white_	counterclockwise_	loc10_	notarget_	incorrect_or_nopress	block4_flicker_shape2_white_counterclockwise_notarget_incorrect_or_nopressloc10_
140	2	4	245	2	2	0	0	45	0	0	422200045	block4_	flicker_	shape2_	white_	counterclockwise_	loc45_	notarget_	incorrect_or_nopress	block4_flicker_shape2_white_counterclockwise_notarget_incorrect_or_nopressloc45_
141	2	4	255	2	1	0	0	55	0	0	422100055	block4_	flicker_	shape2_	black_	counterclockwise_	loc55_	notarget_	incorrect_or_nopress	block4_flicker_shape2_black_counterclockwise_notarget_incorrect_or_nopressloc55_
142	2	4	224	1	2	0	0	24	0	0	421200024	block4_	flicker_	shape1_	white_	counterclockwise_	loc24_	notarget_	incorrect_or_nopress	block4_flicker_shape1_white_counterclockwise_notarget_incorrect_or_nopressloc24_
143	2	4	262	1	1	0	0	62	0	0	421100062	block4_	flicker_	shape1_	black_	counterclockwise_	loc62_	notarget_	incorrect_or_nopress	block4_flicker_shape1_black_counterclockwise_notarget_incorrect_or_nopressloc62_
144	2	4	232	2	1	0	0	32	0	0	422100032	block4_	flicker_	shape2_	black_	counterclockwise_	loc32_	notarget_	incorrect_or_nopress	block4_flicker_shape2_black_counterclockwise_notarget_incorrect_or_nopressloc32_
145	2	4	238	2	2	0	0	38	0	0	422200038	block4_	flicker_	shape2_	white_	counterclockwise_	loc38_	notarget_	incorrect_or_nopress	block4_flicker_shape2_white_counterclockwise_notarget_incorrect_or_nopressloc38_
146	2	4	242	1	1	0	0	42	0	0	421100042	block4_	flicker_	shape1_	black_	counterclockwise_	loc42_	notarget_	incorrect_or_nopress	block4_flicker_shape1_black_counterclockwise_notarget_incorrect_or_nopressloc42_
147	2	4	231	2	1	0	0	31	0	0	422100031	block4_	flicker_	shape2_	black_	counterclockwise_	loc31_	notarget_	incorrect_or_nopress	block4_flicker_shape2_black_counterclockwise_notarget_incorrect_or_nopressloc31_
148	2	4	219	2	2	0	0	19	0	0	422200019	block4_	flicker_	shape2_	white_	counterclockwise_	loc19_	notarget_	incorrect_or_nopress	block4_flicker_shape2_white_counterclockwise_notarget_incorrect_or_nopressloc19_
149	2	4	241	2	2	0	0	41	0	0	422200041	block4_	flicker_	shape2_	white_	counterclockwise_	loc41_	notarget_	incorrect_or_nopress	block4_flicker_shape2_white_counterclockwise_notarget_incorrect_or_nopressloc41_
150	2	4	246	1	2	0	2	46	2	0	421202046	block4_	flicker_	shape1_	white_	counterclockwise_	loc46_	padding_	incorrect_or_nopress	block4_flicker_shape1_white_counterclockwise_padding_incorrect_or_nopressloc46_
151	2	4	212	2	2	0	2	12	2	0	422202012	block4_	flicker_	shape2_	white_	counterclockwise_	loc12_	padding_	incorrect_or_nopress	block4_flicker_shape2_white_counterclockwise_padding_incorrect_or_nopressloc12_
152	2	4	206	2	2	0	2	6	2	0	422202006	block4_	flicker_	shape2_	white_	counterclockwise_	loc6_	padding_	incorrect_or_nopress	block4_flicker_shape2_white_counterclockwise_padding_incorrect_or_nopressloc6_
153	2	4	245	1	1	0	2	45	2	0	421102045	block4_	flicker_	shape1_	black_	counterclockwise_	loc45_	padding_	incorrect_or_nopress	block4_flicker_shape1_black_counterclockwise_padding_incorrect_or_nopressloc45_
154	2	4	208	1	1	0	2	8	2	0	421102008	block4_	flicker_	shape1_	black_	counterclockwise_	loc8_	padding_	incorrect_or_nopress	block4_flicker_shape1_black_counterclockwise_padding_incorrect_or_nopressloc8_
155	2	4	219	2	1	0	2	19	2	0	422102019	block4_	flicker_	shape2_	black_	counterclockwise_	loc19_	padding_	incorrect_or_nopress	block4_flicker_shape2_black_counterclockwise_padding_incorrect_or_nopressloc19_
156	2	4	249	1	2	0	2	49	2	0	421202049	block4_	flicker_	shape1_	white_	counterclockwise_	loc49_	padding_	incorrect_or_nopress	block4_flicker_shape1_white_counterclockwise_padding_incorrect_or_nopressloc49_
157	2	4	264	1	1	0	1	64	1	0	421101064	block4_	flicker_	shape1_	black_	counterclockwise_	loc64_	istarget_	incorrect_or_nopress	block4_flicker_shape1_black_counterclockwise_istarget_incorrect_or_nopressloc64_
158	2	4	261	2	2	0	2	61	2	0	422202061	block4_	flicker_	shape2_	white_	counterclockwise_	loc61_	padding_	incorrect_or_nopress	block4_flicker_shape2_white_counterclockwise_padding_incorrect_or_nopressloc61_
159	2	4	238	2	1	0	2	38	2	0	422102038	block4_	flicker_	shape2_	black_	counterclockwise_	loc38_	padding_	incorrect_or_nopress	block4_flicker_shape2_black_counterclockwise_padding_incorrect_or_nopressloc38_
160	2	4	209	1	1	0	2	9	2	1	421102109	block4_	flicker_	shape1_	black_	counterclockwise_	loc9_	padding_	correct_or_press	block4_flicker_shape1_black_counterclockwise_padding_correct_or_pressloc9_
161	2	4	229	1	2	0	2	29	2	1	421202129	block4_	flicker_	shape1_	white_	counterclockwise_	loc29_	padding_	correct_or_press	block4_flicker_shape1_white_counterclockwise_padding_correct_or_pressloc29_
162	2	4	250	1	2	0	2	50	2	0	421202050	block4_	flicker_	shape1_	white_	counterclockwise_	loc50_	padding_	incorrect_or_nopress	block4_flicker_shape1_white_counterclockwise_padding_incorrect_or_nopressloc50_
163	2	4	211	2	1	0	2	11	2	0	422102011	block4_	flicker_	shape2_	black_	counterclockwise_	loc11_	padding_	incorrect_or_nopress	block4_flicker_shape2_black_counterclockwise_padding_incorrect_or_nopressloc11_
164	2	4	239	2	1	0	2	39	2	0	422102039	block4_	flicker_	shape2_	black_	counterclockwise_	loc39_	padding_	incorrect_or_nopress	block4_flicker_shape2_black_counterclockwise_padding_incorrect_or_nopressloc39_
165	2	4	262	2	2	0	2	62	2	0	422202062	block4_	flicker_	shape2_	white_	counterclockwise_	loc62_	padding_	incorrect_or_nopress	block4_flicker_shape2_white_counterclockwise_padding_incorrect_or_nopressloc62_
166	2	4	228	1	1	0	0	28	0	0	421100028	block4_	flicker_	shape1_	black_	counterclockwise_	loc28_	notarget_	incorrect_or_nopress	block4_flicker_shape1_black_counterclockwise_notarget_incorrect_or_nopressloc28_
167	2	4	257	2	2	0	0	57	0	0	422200057	block4_	flicker_	shape2_	white_	counterclockwise_	loc57_	notarget_	incorrect_or_nopress	block4_flicker_shape2_white_counterclockwise_notarget_incorrect_or_nopressloc57_
168	2	4	248	1	1	0	0	48	0	0	421100048	block4_	flicker_	shape1_	black_	counterclockwise_	loc48_	notarget_	incorrect_or_nopress	block4_flicker_shape1_black_counterclockwise_notarget_incorrect_or_nopressloc48_
169	2	4	224	2	1	0	0	24	0	0	422100024	block4_	flicker_	shape2_	black_	counterclockwise_	loc24_	notarget_	incorrect_or_nopress	block4_flicker_shape2_black_counterclockwise_notarget_incorrect_or_nopressloc24_
170	2	4	228	1	2	0	0	28	0	0	421200028	block4_	flicker_	shape1_	white_	counterclockwise_	loc28_	notarget_	incorrect_or_nopress	block4_flicker_shape1_white_counterclockwise_notarget_incorrect_or_nopressloc28_
171	2	4	242	1	2	0	0	42	0	0	421200042	block4_	flicker_	shape1_	white_	counterclockwise_	loc42_	notarget_	incorrect_or_nopress	block4_flicker_shape1_white_counterclockwise_notarget_incorrect_or_nopressloc42_
172	2	4	208	2	1	0	0	8	0	0	422100008	block4_	flicker_	shape2_	black_	counterclockwise_	loc8_	notarget_	incorrect_or_nopress	block4_flicker_shape2_black_counterclockwise_notarget_incorrect_or_nopressloc8_
173	2	4	256	1	2	0	0	56	0	0	421200056	block4_	flicker_	shape1_	white_	counterclockwise_	loc56_	notarget_	incorrect_or_nopress	block4_flicker_shape1_white_counterclockwise_notarget_incorrect_or_nopressloc56_
174	2	4	226	1	1	0	0	26	0	0	421100026	block4_	flicker_	shape1_	black_	counterclockwise_	loc26_	notarget_	incorrect_or_nopress	block4_flicker_shape1_black_counterclockwise_notarget_incorrect_or_nopressloc26_
175	2	4	246	2	2	0	0	46	0	0	422200046	block4_	flicker_	shape2_	white_	counterclockwise_	loc46_	notarget_	incorrect_or_nopress	block4_flicker_shape2_white_counterclockwise_notarget_incorrect_or_nopressloc46_
176	2	4	247	2	1	0	0	47	0	0	422100047	block4_	flicker_	shape2_	black_	counterclockwise_	loc47_	notarget_	incorrect_or_nopress	block4_flicker_shape2_black_counterclockwise_notarget_incorrect_or_nopressloc47_
177	2	4	242	2	1	0	0	42	0	0	422100042	block4_	flicker_	shape2_	black_	counterclockwise_	loc42_	notarget_	incorrect_or_nopress	block4_flicker_shape2_black_counterclockwise_notarget_incorrect_or_nopressloc42_
178	2	4	215	2	1	0	0	15	0	0	422100015	block4_	flicker_	shape2_	black_	counterclockwise_	loc15_	notarget_	incorrect_or_nopress	block4_flicker_shape2_black_counterclockwise_notarget_incorrect_or_nopressloc15_
179	2	4	262	2	2	0	0	62	0	0	422200062	block4_	flicker_	shape2_	white_	counterclockwise_	loc62_	notarget_	incorrect_or_nopress	block4_flicker_shape2_white_counterclockwise_notarget_incorrect_or_nopressloc62_
180	2	4	263	2	1	0	0	63	0	0	422100063	block4_	flicker_	shape2_	black_	counterclockwise_	loc63_	notarget_	incorrect_or_nopress	block4_flicker_shape2_black_counterclockwise_notarget_incorrect_or_nopressloc63_
181	2	4	206	2	2	0	0	6	0	0	422200006	block4_	flicker_	shape2_	white_	counterclockwise_	loc6_	notarget_	incorrect_or_nopress	block4_flicker_shape2_white_counterclockwise_notarget_incorrect_or_nopressloc6_
182	2	4	201	2	2	0	0	1	0	0	422200001	block4_	flicker_	shape2_	white_	counterclockwise_	loc1_	notarget_	incorrect_or_nopress	block4_flicker_shape2_white_counterclockwise_notarget_incorrect_or_nopressloc1_
183	2	4	243	2	1	0	0	43	0	0	422100043	block4_	flicker_	shape2_	black_	counterclockwise_	loc43_	notarget_	incorrect_or_nopress	block4_flicker_shape2_black_counterclockwise_notarget_incorrect_or_nopressloc43_
184	2	4	253	1	2	0	0	53	0	0	421200053	block4_	flicker_	shape1_	white_	counterclockwise_	loc53_	notarget_	incorrect_or_nopress	block4_flicker_shape1_white_counterclockwise_notarget_incorrect_or_nopressloc53_
185	2	4	247	1	1	0	0	47	0	0	421100047	block4_	flicker_	shape1_	black_	counterclockwise_	loc47_	notarget_	incorrect_or_nopress	block4_flicker_shape1_black_counterclockwise_notarget_incorrect_or_nopressloc47_
186	2	4	261	1	1	0	0	61	0	0	421100061	block4_	flicker_	shape1_	black_	counterclockwise_	loc61_	notarget_	incorrect_or_nopress	block4_flicker_shape1_black_counterclockwise_notarget_incorrect_or_nopressloc61_
187	2	4	247	1	2	0	0	47	0	0	421200047	block4_	flicker_	shape1_	white_	counterclockwise_	loc47_	notarget_	incorrect_or_nopress	block4_flicker_shape1_white_counterclockwise_notarget_incorrect_or_nopressloc47_
188	2	4	240	1	1	0	0	40	0	0	421100040	block4_	flicker_	shape1_	black_	counterclockwise_	loc40_	notarget_	incorrect_or_nopress	block4_flicker_shape1_black_counterclockwise_notarget_incorrect_or_nopressloc40_
189	2	4	208	1	2	0	0	8	0	0	421200008	block4_	flicker_	shape1_	white_	counterclockwise_	loc8_	notarget_	incorrect_or_nopress	block4_flicker_shape1_white_counterclockwise_notarget_incorrect_or_nopressloc8_
190	2	4	214	2	1	0	0	14	0	0	422100014	block4_	flicker_	shape2_	black_	counterclockwise_	loc14_	notarget_	incorrect_or_nopress	block4_flicker_shape2_black_counterclockwise_notarget_incorrect_or_nopressloc14_
191	2	4	264	1	2	0	0	64	0	0	421200064	block4_	flicker_	shape1_	white_	counterclockwise_	loc64_	notarget_	incorrect_or_nopress	block4_flicker_shape1_white_counterclockwise_notarget_incorrect_or_nopressloc64_
192	2	4	203	1	2	0	0	3	0	0	421200003	block4_	flicker_	shape1_	white_	counterclockwise_	loc3_	notarget_	incorrect_or_nopress	block4_flicker_shape1_white_counterclockwise_notarget_incorrect_or_nopressloc3_
193	2	4	239	2	2	0	0	39	0	0	422200039	block4_	flicker_	shape2_	white_	counterclockwise_	loc39_	notarget_	incorrect_or_nopress	block4_flicker_shape2_white_counterclockwise_notarget_incorrect_or_nopressloc39_
194	2	4	257	2	1	0	0	57	0	0	422100057	block4_	flicker_	shape2_	black_	counterclockwise_	loc57_	notarget_	incorrect_or_nopress	block4_flicker_shape2_black_counterclockwise_notarget_incorrect_or_nopressloc57_
195	2	4	223	2	2	0	0	23	0	0	422200023	block4_	flicker_	shape2_	white_	counterclockwise_	loc23_	notarget_	incorrect_or_nopress	block4_flicker_shape2_white_counterclockwise_notarget_incorrect_or_nopressloc23_
196	2	4	204	1	2	0	0	4	0	0	421200004	block4_	flicker_	shape1_	white_	counterclockwise_	loc4_	notarget_	incorrect_or_nopress	block4_flicker_shape1_white_counterclockwise_notarget_incorrect_or_nopressloc4_
197	2	4	247	2	2	0	0	47	0	0	422200047	block4_	flicker_	shape2_	white_	counterclockwise_	loc47_	notarget_	incorrect_or_nopress	block4_flicker_shape2_white_counterclockwise_notarget_incorrect_or_nopressloc47_
198	2	4	256	2	2	0	0	56	0	0	422200056	block4_	flicker_	shape2_	white_	counterclockwise_	loc56_	notarget_	incorrect_or_nopress	block4_flicker_shape2_white_counterclockwise_notarget_incorrect_or_nopressloc56_
199	2	4	232	1	2	0	0	32	0	0	421200032	block4_	flicker_	shape1_	white_	counterclockwise_	loc32_	notarget_	incorrect_or_nopress	block4_flicker_shape1_white_counterclockwise_notarget_incorrect_or_nopressloc32_
200	2	4	258	2	2	0	0	58	0	0	422200058	block4_	flicker_	shape2_	white_	counterclockwise_	loc58_	notarget_	incorrect_or_nopress	block4_flicker_shape2_white_counterclockwise_notarget_incorrect_or_nopressloc58_
201	2	4	259	1	1	0	0	59	0	0	421100059	block4_	flicker_	shape1_	black_	counterclockwise_	loc59_	notarget_	incorrect_or_nopress	block4_flicker_shape1_black_counterclockwise_notarget_incorrect_or_nopressloc59_
202	2	4	251	1	2	0	0	51	0	0	421200051	block4_	flicker_	shape1_	white_	counterclockwise_	loc51_	notarget_	incorrect_or_nopress	block4_flicker_shape1_white_counterclockwise_notarget_incorrect_or_nopressloc51_
203	2	4	217	1	1	0	0	17	0	0	421100017	block4_	flicker_	shape1_	black_	counterclockwise_	loc17_	notarget_	incorrect_or_nopress	block4_flicker_shape1_black_counterclockwise_notarget_incorrect_or_nopressloc17_
204	2	4	251	2	2	0	0	51	0	0	422200051	block4_	flicker_	shape2_	white_	counterclockwise_	loc51_	notarget_	incorrect_or_nopress	block4_flicker_shape2_white_counterclockwise_notarget_incorrect_or_nopressloc51_
205	2	4	263	1	1	0	0	63	0	0	421100063	block4_	flicker_	shape1_	black_	counterclockwise_	loc63_	notarget_	incorrect_or_nopress	block4_flicker_shape1_black_counterclockwise_notarget_incorrect_or_nopressloc63_
206	2	4	250	1	1	0	0	50	0	0	421100050	block4_	flicker_	shape1_	black_	counterclockwise_	loc50_	notarget_	incorrect_or_nopress	block4_flicker_shape1_black_counterclockwise_notarget_incorrect_or_nopressloc50_
207	2	4	202	2	2	0	0	2	0	0	422200002	block4_	flicker_	shape2_	white_	counterclockwise_	loc2_	notarget_	incorrect_or_nopress	block4_flicker_shape2_white_counterclockwise_notarget_incorrect_or_nopressloc2_
208	2	4	249	2	1	0	0	49	0	0	422100049	block4_	flicker_	shape2_	black_	counterclockwise_	loc49_	notarget_	incorrect_or_nopress	block4_flicker_shape2_black_counterclockwise_notarget_incorrect_or_nopressloc49_
209	2	4	212	1	1	0	0	12	0	0	421100012	block4_	flicker_	shape1_	black_	counterclockwise_	loc12_	notarget_	incorrect_or_nopress	block4_flicker_shape1_black_counterclockwise_notarget_incorrect_or_nopressloc12_
210	2	4	252	2	2	0	0	52	0	0	422200052	block4_	flicker_	shape2_	white_	counterclockwise_	loc52_	notarget_	incorrect_or_nopress	block4_flicker_shape2_white_counterclockwise_notarget_incorrect_or_nopressloc52_
211	2	4	201	1	1	0	0	1	0	0	421100001	block4_	flicker_	shape1_	black_	counterclockwise_	loc1_	notarget_	incorrect_or_nopress	block4_flicker_shape1_black_counterclockwise_notarget_incorrect_or_nopressloc1_
212	2	4	210	1	2	0	0	10	0	0	421200010	block4_	flicker_	shape1_	white_	counterclockwise_	loc10_	notarget_	incorrect_or_nopress	block4_flicker_shape1_white_counterclockwise_notarget_incorrect_or_nopressloc10_
213	2	4	229	1	1	0	0	29	0	0	421100029	block4_	flicker_	shape1_	black_	counterclockwise_	loc29_	notarget_	incorrect_or_nopress	block4_flicker_shape1_black_counterclockwise_notarget_incorrect_or_nopressloc29_
214	2	4	243	1	1	0	0	43	0	0	421100043	block4_	flicker_	shape1_	black_	counterclockwise_	loc43_	notarget_	incorrect_or_nopress	block4_flicker_shape1_black_counterclockwise_notarget_incorrect_or_nopressloc43_
215	2	4	213	2	1	0	0	13	0	0	422100013	block4_	flicker_	shape2_	black_	counterclockwise_	loc13_	notarget_	incorrect_or_nopress	block4_flicker_shape2_black_counterclockwise_notarget_incorrect_or_nopressloc13_
216	2	4	245	2	1	0	0	45	0	0	422100045	block4_	flicker_	shape2_	black_	counterclockwise_	loc45_	notarget_	incorrect_or_nopress	block4_flicker_shape2_black_counterclockwise_notarget_incorrect_or_nopressloc45_
217	2	4	216	2	2	0	0	16	0	0	422200016	block4_	flicker_	shape2_	white_	counterclockwise_	loc16_	notarget_	incorrect_or_nopress	block4_flicker_shape2_white_counterclockwise_notarget_incorrect_or_nopressloc16_
218	2	4	219	1	2	0	0	19	0	0	421200019	block4_	flicker_	shape1_	white_	counterclockwise_	loc19_	notarget_	incorrect_or_nopress	block4_flicker_shape1_white_counterclockwise_notarget_incorrect_or_nopressloc19_
219	2	4	236	1	1	0	0	36	0	0	421100036	block4_	flicker_	shape1_	black_	counterclockwise_	loc36_	notarget_	incorrect_or_nopress	block4_flicker_shape1_black_counterclockwise_notarget_incorrect_or_nopressloc36_
220	2	4	216	2	1	0	0	16	0	0	422100016	block4_	flicker_	shape2_	black_	counterclockwise_	loc16_	notarget_	incorrect_or_nopress	block4_flicker_shape2_black_counterclockwise_notarget_incorrect_or_nopressloc16_
221	2	4	232	1	1	0	0	32	0	0	421100032	block4_	flicker_	shape1_	black_	counterclockwise_	loc32_	notarget_	incorrect_or_nopress	block4_flicker_shape1_black_counterclockwise_notarget_incorrect_or_nopressloc32_
222	2	4	240	2	1	0	0	40	0	0	422100040	block4_	flicker_	shape2_	black_	counterclockwise_	loc40_	notarget_	incorrect_or_nopress	block4_flicker_shape2_black_counterclockwise_notarget_incorrect_or_nopressloc40_
223	2	4	240	2	2	0	0	40	0	0	422200040	block4_	flicker_	shape2_	white_	counterclockwise_	loc40_	notarget_	incorrect_or_nopress	block4_flicker_shape2_white_counterclockwise_notarget_incorrect_or_nopressloc40_
224	2	4	221	2	1	0	0	21	0	0	422100021	block4_	flicker_	shape2_	black_	counterclockwise_	loc21_	notarget_	incorrect_or_nopress	block4_flicker_shape2_black_counterclockwise_notarget_incorrect_or_nopressloc21_
225	2	4	202	1	2	0	0	2	0	0	421200002	block4_	flicker_	shape1_	white_	counterclockwise_	loc2_	notarget_	incorrect_or_nopress	block4_flicker_shape1_white_counterclockwise_notarget_incorrect_or_nopressloc2_
226	2	4	262	1	2	0	0	62	0	0	421200062	block4_	flicker_	shape1_	white_	counterclockwise_	loc62_	notarget_	incorrect_or_nopress	block4_flicker_shape1_white_counterclockwise_notarget_incorrect_or_nopressloc62_
227	2	4	254	2	2	0	0	54	0	0	422200054	block4_	flicker_	shape2_	white_	counterclockwise_	loc54_	notarget_	incorrect_or_nopress	block4_flicker_shape2_white_counterclockwise_notarget_incorrect_or_nopressloc54_
228	2	4	220	2	2	0	0	20	0	0	422200020	block4_	flicker_	shape2_	white_	counterclockwise_	loc20_	notarget_	incorrect_or_nopress	block4_flicker_shape2_white_counterclockwise_notarget_incorrect_or_nopressloc20_
229	2	4	207	2	2	0	0	7	0	0	422200007	block4_	flicker_	shape2_	white_	counterclockwise_	loc7_	notarget_	incorrect_or_nopress	block4_flicker_shape2_white_counterclockwise_notarget_incorrect_or_nopressloc7_
230	2	4	239	1	2	0	0	39	0	0	421200039	block4_	flicker_	shape1_	white_	counterclockwise_	loc39_	notarget_	incorrect_or_nopress	block4_flicker_shape1_white_counterclockwise_notarget_incorrect_or_nopressloc39_
231	2	4	205	2	1	0	0	5	0	0	422100005	block4_	flicker_	shape2_	black_	counterclockwise_	loc5_	notarget_	incorrect_or_nopress	block4_flicker_shape2_black_counterclockwise_notarget_incorrect_or_nopressloc5_
232	2	4	258	1	1	0	0	58	0	0	421100058	block4_	flicker_	shape1_	black_	counterclockwise_	loc58_	notarget_	incorrect_or_nopress	block4_flicker_shape1_black_counterclockwise_notarget_incorrect_or_nopressloc58_
233	2	4	223	1	2	0	0	23	0	0	421200023	block4_	flicker_	shape1_	white_	counterclockwise_	loc23_	notarget_	incorrect_or_nopress	block4_flicker_shape1_white_counterclockwise_notarget_incorrect_or_nopressloc23_
234	2	4	204	2	2	0	0	4	0	0	422200004	block4_	flicker_	shape2_	white_	counterclockwise_	loc4_	notarget_	incorrect_or_nopress	block4_flicker_shape2_white_counterclockwise_notarget_incorrect_or_nopressloc4_
235	2	4	250	2	1	0	0	50	0	0	422100050	block4_	flicker_	shape2_	black_	counterclockwise_	loc50_	notarget_	incorrect_or_nopress	block4_flicker_shape2_black_counterclockwise_notarget_incorrect_or_nopressloc50_
236	2	4	232	2	2	0	0	32	0	0	422200032	block4_	flicker_	shape2_	white_	counterclockwise_	loc32_	notarget_	incorrect_or_nopress	block4_flicker_shape2_white_counterclockwise_notarget_incorrect_or_nopressloc32_
237	2	4	238	1	2	0	0	38	0	0	421200038	block4_	flicker_	shape1_	white_	counterclockwise_	loc38_	notarget_	incorrect_or_nopress	block4_flicker_shape1_white_counterclockwise_notarget_incorrect_or_nopressloc38_
238	2	4	255	1	1	0	0	55	0	0	421100055	block4_	flicker_	shape1_	black_	counterclockwise_	loc55_	notarget_	incorrect_or_nopress	block4_flicker_shape1_black_counterclockwise_notarget_incorrect_or_nopressloc55_
239	2	4	263	1	2	0	0	63	0	0	421200063	block4_	flicker_	shape1_	white_	counterclockwise_	loc63_	notarget_	incorrect_or_nopress	block4_flicker_shape1_white_counterclockwise_notarget_incorrect_or_nopressloc63_
240	2	4	211	2	1	0	0	11	0	0	422100011	block4_	flicker_	shape2_	black_	counterclockwise_	loc11_	notarget_	incorrect_or_nopress	block4_flicker_shape2_black_counterclockwise_notarget_incorrect_or_nopressloc11_
241	2	4	221	1	1	0	0	21	0	0	421100021	block4_	flicker_	shape1_	black_	counterclockwise_	loc21_	notarget_	incorrect_or_nopress	block4_flicker_shape1_black_counterclockwise_notarget_incorrect_or_nopressloc21_
242	2	4	211	1	2	0	0	11	0	0	421200011	block4_	flicker_	shape1_	white_	counterclockwise_	loc11_	notarget_	incorrect_or_nopress	block4_flicker_shape1_white_counterclockwise_notarget_incorrect_or_nopressloc11_
243	2	4	201	1	2	0	0	1	0	0	421200001	block4_	flicker_	shape1_	white_	counterclockwise_	loc1_	notarget_	incorrect_or_nopress	block4_flicker_shape1_white_counterclockwise_notarget_incorrect_or_nopressloc1_
244	2	4	240	1	2	0	0	40	0	0	421200040	block4_	flicker_	shape1_	white_	counterclockwise_	loc40_	notarget_	incorrect_or_nopress	block4_flicker_shape1_white_counterclockwise_notarget_incorrect_or_nopressloc40_
245	2	4	239	2	1	0	0	39	0	0	422100039	block4_	flicker_	shape2_	black_	counterclockwise_	loc39_	notarget_	incorrect_or_nopress	block4_flicker_shape2_black_counterclockwise_notarget_incorrect_or_nopressloc39_
246	2	4	237	2	2	0	0	37	0	0	422200037	block4_	flicker_	shape2_	white_	counterclockwise_	loc37_	notarget_	incorrect_or_nopress	block4_flicker_shape2_white_counterclockwise_notarget_incorrect_or_nopressloc37_
247	2	4	261	2	1	0	0	61	0	0	422100061	block4_	flicker_	shape2_	black_	counterclockwise_	loc61_	notarget_	incorrect_or_nopress	block4_flicker_shape2_black_counterclockwise_notarget_incorrect_or_nopressloc61_
248	2	4	202	1	1	0	0	2	0	0	421100002	block4_	flicker_	shape1_	black_	counterclockwise_	loc2_	notarget_	incorrect_or_nopress	block4_flicker_shape1_black_counterclockwise_notarget_incorrect_or_nopressloc2_
249	2	4	244	2	1	0	0	44	0	0	422100044	block4_	flicker_	shape2_	black_	counterclockwise_	loc44_	notarget_	incorrect_or_nopress	block4_flicker_shape2_black_counterclockwise_notarget_incorrect_or_nopressloc44_
250	2	4	236	2	2	0	0	36	0	0	422200036	block4_	flicker_	shape2_	white_	counterclockwise_	loc36_	notarget_	incorrect_or_nopress	block4_flicker_shape2_white_counterclockwise_notarget_incorrect_or_nopressloc36_
251	2	4	234	1	1	0	0	34	0	0	421100034	block4_	flicker_	shape1_	black_	counterclockwise_	loc34_	notarget_	incorrect_or_nopress	block4_flicker_shape1_black_counterclockwise_notarget_incorrect_or_nopressloc34_
252	2	4	202	2	1	0	0	2	0	0	422100002	block4_	flicker_	shape2_	black_	counterclockwise_	loc2_	notarget_	incorrect_or_nopress	block4_flicker_shape2_black_counterclockwise_notarget_incorrect_or_nopressloc2_
253	2	4	261	1	2	0	0	61	0	0	421200061	block4_	flicker_	shape1_	white_	counterclockwise_	loc61_	notarget_	incorrect_or_nopress	block4_flicker_shape1_white_counterclockwise_notarget_incorrect_or_nopressloc61_
254	2	4	253	2	2	0	0	53	0	0	422200053	block4_	flicker_	shape2_	white_	counterclockwise_	loc53_	notarget_	incorrect_or_nopress	block4_flicker_shape2_white_counterclockwise_notarget_incorrect_or_nopressloc53_
255	2	4	235	1	2	0	0	35	0	0	421200035	block4_	flicker_	shape1_	white_	counterclockwise_	loc35_	notarget_	incorrect_or_nopress	block4_flicker_shape1_white_counterclockwise_notarget_incorrect_or_nopressloc35_
256	2	4	244	2	2	0	0	44	0	0	422200044	block4_	flicker_	shape2_	white_	counterclockwise_	loc44_	notarget_	incorrect_or_nopress	block4_flicker_shape2_white_counterclockwise_notarget_incorrect_or_nopressloc44_
257	2	4	226	1	2	0	0	26	0	0	421200026	block4_	flicker_	shape1_	white_	counterclockwise_	loc26_	notarget_	incorrect_or_nopress	block4_flicker_shape1_white_counterclockwise_notarget_incorrect_or_nopressloc26_
258	2	4	233	1	2	0	0	33	0	0	421200033	block4_	flicker_	shape1_	white_	counterclockwise_	loc33_	notarget_	incorrect_or_nopress	block4_flicker_shape1_white_counterclockwise_notarget_incorrect_or_nopressloc33_
259	2	4	256	1	1	0	0	56	0	0	421100056	block4_	flicker_	shape1_	black_	counterclockwise_	loc56_	notarget_	incorrect_or_nopress	block4_flicker_shape1_black_counterclockwise_notarget_incorrect_or_nopressloc56_
260	2	4	233	1	1	0	0	33	0	0	421100033	block4_	flicker_	shape1_	black_	counterclockwise_	loc33_	notarget_	incorrect_or_nopress	block4_flicker_shape1_black_counterclockwise_notarget_incorrect_or_nopressloc33_
261	2	4	244	1	2	0	0	44	0	0	421200044	block4_	flicker_	shape1_	white_	counterclockwise_	loc44_	notarget_	incorrect_or_nopress	block4_flicker_shape1_white_counterclockwise_notarget_incorrect_or_nopressloc44_
262	2	4	211	2	2	0	0	11	0	0	422200011	block4_	flicker_	shape2_	white_	counterclockwise_	loc11_	notarget_	incorrect_or_nopress	block4_flicker_shape2_white_counterclockwise_notarget_incorrect_or_nopressloc11_
263	2	4	236	1	2	0	0	36	0	0	421200036	block4_	flicker_	shape1_	white_	counterclockwise_	loc36_	notarget_	incorrect_or_nopress	block4_flicker_shape1_white_counterclockwise_notarget_incorrect_or_nopressloc36_
264	2	4	217	2	1	0	0	17	0	0	422100017	block4_	flicker_	shape2_	black_	counterclockwise_	loc17_	notarget_	incorrect_or_nopress	block4_flicker_shape2_black_counterclockwise_notarget_incorrect_or_nopressloc17_
265	2	4	234	1	2	0	0	34	0	0	421200034	block4_	flicker_	shape1_	white_	counterclockwise_	loc34_	notarget_	incorrect_or_nopress	block4_flicker_shape1_white_counterclockwise_notarget_incorrect_or_nopressloc34_
266	2	4	219	1	1	0	0	19	0	0	421100019	block4_	flicker_	shape1_	black_	counterclockwise_	loc19_	notarget_	incorrect_or_nopress	block4_flicker_shape1_black_counterclockwise_notarget_incorrect_or_nopressloc19_
267	2	4	205	1	2	0	0	5	0	0	421200005	block4_	flicker_	shape1_	white_	counterclockwise_	loc5_	notarget_	incorrect_or_nopress	block4_flicker_shape1_white_counterclockwise_notarget_incorrect_or_nopressloc5_
268	2	4	206	1	2	0	0	6	0	0	421200006	block4_	flicker_	shape1_	white_	counterclockwise_	loc6_	notarget_	incorrect_or_nopress	block4_flicker_shape1_white_counterclockwise_notarget_incorrect_or_nopressloc6_
269	2	4	218	2	2	0	0	18	0	0	422200018	block4_	flicker_	shape2_	white_	counterclockwise_	loc18_	notarget_	incorrect_or_nopress	block4_flicker_shape2_white_counterclockwise_notarget_incorrect_or_nopressloc18_
270	2	4	212	1	2	0	0	12	0	0	421200012	block4_	flicker_	shape1_	white_	counterclockwise_	loc12_	notarget_	incorrect_or_nopress	block4_flicker_shape1_white_counterclockwise_notarget_incorrect_or_nopressloc12_
271	2	4	246	2	1	0	0	46	0	0	422100046	block4_	flicker_	shape2_	black_	counterclockwise_	loc46_	notarget_	incorrect_or_nopress	block4_flicker_shape2_black_counterclockwise_notarget_incorrect_or_nopressloc46_
272	2	4	228	2	1	0	0	28	0	0	422100028	block4_	flicker_	shape2_	black_	counterclockwise_	loc28_	notarget_	incorrect_or_nopress	block4_flicker_shape2_black_counterclockwise_notarget_incorrect_or_nopressloc28_
273	2	4	216	1	1	0	0	16	0	0	421100016	block4_	flicker_	shape1_	black_	counterclockwise_	loc16_	notarget_	incorrect_or_nopress	block4_flicker_shape1_black_counterclockwise_notarget_incorrect_or_nopressloc16_
274	2	4	252	1	1	0	0	52	0	0	421100052	block4_	flicker_	shape1_	black_	counterclockwise_	loc52_	notarget_	incorrect_or_nopress	block4_flicker_shape1_black_counterclockwise_notarget_incorrect_or_nopressloc52_
275	2	4	222	1	1	0	0	22	0	0	421100022	block4_	flicker_	shape1_	black_	counterclockwise_	loc22_	notarget_	incorrect_or_nopress	block4_flicker_shape1_black_counterclockwise_notarget_incorrect_or_nopressloc22_
276	2	4	220	1	1	0	0	20	0	0	421100020	block4_	flicker_	shape1_	black_	counterclockwise_	loc20_	notarget_	incorrect_or_nopress	block4_flicker_shape1_black_counterclockwise_notarget_incorrect_or_nopressloc20_
277	2	4	261	2	2	0	0	61	0	0	422200061	block4_	flicker_	shape2_	white_	counterclockwise_	loc61_	notarget_	incorrect_or_nopress	block4_flicker_shape2_white_counterclockwise_notarget_incorrect_or_nopressloc61_
278	2	4	244	1	1	0	0	44	0	0	421100044	block4_	flicker_	shape1_	black_	counterclockwise_	loc44_	notarget_	incorrect_or_nopress	block4_flicker_shape1_black_counterclockwise_notarget_incorrect_or_nopressloc44_
279	2	4	237	1	1	0	0	37	0	0	421100037	block4_	flicker_	shape1_	black_	counterclockwise_	loc37_	notarget_	incorrect_or_nopress	block4_flicker_shape1_black_counterclockwise_notarget_incorrect_or_nopressloc37_
280	2	4	224	2	2	0	0	24	0	0	422200024	block4_	flicker_	shape2_	white_	counterclockwise_	loc24_	notarget_	incorrect_or_nopress	block4_flicker_shape2_white_counterclockwise_notarget_incorrect_or_nopressloc24_
281	2	4	234	2	1	0	0	34	0	0	422100034	block4_	flicker_	shape2_	black_	counterclockwise_	loc34_	notarget_	incorrect_or_nopress	block4_flicker_shape2_black_counterclockwise_notarget_incorrect_or_nopressloc34_
282	2	4	251	1	1	0	0	51	0	0	421100051	block4_	flicker_	shape1_	black_	counterclockwise_	loc51_	notarget_	incorrect_or_nopress	block4_flicker_shape1_black_counterclockwise_notarget_incorrect_or_nopressloc51_
283	2	4	235	2	1	0	0	35	0	0	422100035	block4_	flicker_	shape2_	black_	counterclockwise_	loc35_	notarget_	incorrect_or_nopress	block4_flicker_shape2_black_counterclockwise_notarget_incorrect_or_nopressloc35_
284	2	4	220	1	2	0	0	20	0	0	421200020	block4_	flicker_	shape1_	white_	counterclockwise_	loc20_	notarget_	incorrect_or_nopress	block4_flicker_shape1_white_counterclockwise_notarget_incorrect_or_nopressloc20_
285	2	4	225	1	2	0	0	25	0	0	421200025	block4_	flicker_	shape1_	white_	counterclockwise_	loc25_	notarget_	incorrect_or_nopress	block4_flicker_shape1_white_counterclockwise_notarget_incorrect_or_nopressloc25_
286	2	4	215	1	2	0	0	15	0	0	421200015	block4_	flicker_	shape1_	white_	counterclockwise_	loc15_	notarget_	incorrect_or_nopress	block4_flicker_shape1_white_counterclockwise_notarget_incorrect_or_nopressloc15_
287	2	4	218	2	1	0	0	18	0	0	422100018	block4_	flicker_	shape2_	black_	counterclockwise_	loc18_	notarget_	incorrect_or_nopress	block4_flicker_shape2_black_counterclockwise_notarget_incorrect_or_nopressloc18_
288	2	4	230	1	2	0	0	30	0	0	421200030	block4_	flicker_	shape1_	white_	counterclockwise_	loc30_	notarget_	incorrect_or_nopress	block4_flicker_shape1_white_counterclockwise_notarget_incorrect_or_nopressloc30_
289	2	4	226	2	2	0	0	26	0	0	422200026	block4_	flicker_	shape2_	white_	counterclockwise_	loc26_	notarget_	incorrect_or_nopress	block4_flicker_shape2_white_counterclockwise_notarget_incorrect_or_nopressloc26_
290	2	4	258	2	1	0	0	58	0	0	422100058	block4_	flicker_	shape2_	black_	counterclockwise_	loc58_	notarget_	incorrect_or_nopress	block4_flicker_shape2_black_counterclockwise_notarget_incorrect_or_nopressloc58_
291	2	4	222	2	1	0	0	22	0	0	422100022	block4_	flicker_	shape2_	black_	counterclockwise_	loc22_	notarget_	incorrect_or_nopress	block4_flicker_shape2_black_counterclockwise_notarget_incorrect_or_nopressloc22_
292	2	4	228	2	2	0	0	28	0	0	422200028	block4_	flicker_	shape2_	white_	counterclockwise_	loc28_	notarget_	incorrect_or_nopress	block4_flicker_shape2_white_counterclockwise_notarget_incorrect_or_nopressloc28_
293	2	4	214	2	2	0	0	14	0	0	422200014	block4_	flicker_	shape2_	white_	counterclockwise_	loc14_	notarget_	incorrect_or_nopress	block4_flicker_shape2_white_counterclockwise_notarget_incorrect_or_nopressloc14_
294	2	4	209	2	2	0	0	9	0	0	422200009	block4_	flicker_	shape2_	white_	counterclockwise_	loc9_	notarget_	incorrect_or_nopress	block4_flicker_shape2_white_counterclockwise_notarget_incorrect_or_nopressloc9_
295	2	4	259	1	2	0	0	59	0	0	421200059	block4_	flicker_	shape1_	white_	counterclockwise_	loc59_	notarget_	incorrect_or_nopress	block4_flicker_shape1_white_counterclockwise_notarget_incorrect_or_nopressloc59_
296	2	4	246	1	1	0	0	46	0	0	421100046	block4_	flicker_	shape1_	black_	counterclockwise_	loc46_	notarget_	incorrect_or_nopress	block4_flicker_shape1_black_counterclockwise_notarget_incorrect_or_nopressloc46_
297	2	4	259	2	2	0	0	59	0	0	422200059	block4_	flicker_	shape2_	white_	counterclockwise_	loc59_	notarget_	incorrect_or_nopress	block4_flicker_shape2_white_counterclockwise_notarget_incorrect_or_nopressloc59_
298	2	4	241	1	1	0	0	41	0	0	421100041	block4_	flicker_	shape1_	black_	counterclockwise_	loc41_	notarget_	incorrect_or_nopress	block4_flicker_shape1_black_counterclockwise_notarget_incorrect_or_nopressloc41_
299	2	4	257	1	1	0	0	57	0	0	421100057	block4_	flicker_	shape1_	black_	counterclockwise_	loc57_	notarget_	incorrect_or_nopress	block4_flicker_shape1_black_counterclockwise_notarget_incorrect_or_nopressloc57_
300	2	4	263	2	2	0	0	63	0	0	422200063	block4_	flicker_	shape2_	white_	counterclockwise_	loc63_	notarget_	incorrect_or_nopress	block4_flicker_shape2_white_counterclockwise_notarget_incorrect_or_nopressloc63_
301	2	4	250	1	2	0	0	50	0	0	421200050	block4_	flicker_	shape1_	white_	counterclockwise_	loc50_	notarget_	incorrect_or_nopress	block4_flicker_shape1_white_counterclockwise_notarget_incorrect_or_nopressloc50_
302	2	4	209	2	1	0	0	9	0	0	422100009	block4_	flicker_	shape2_	black_	counterclockwise_	loc9_	notarget_	incorrect_or_nopress	block4_flicker_shape2_black_counterclockwise_notarget_incorrect_or_nopressloc9_
303	2	4	209	1	1	0	0	9	0	0	421100009	block4_	flicker_	shape1_	black_	counterclockwise_	loc9_	notarget_	incorrect_or_nopress	block4_flicker_shape1_black_counterclockwise_notarget_incorrect_or_nopressloc9_
304	2	4	227	1	1	0	0	27	0	0	421100027	block4_	flicker_	shape1_	black_	counterclockwise_	loc27_	notarget_	incorrect_or_nopress	block4_flicker_shape1_black_counterclockwise_notarget_incorrect_or_nopressloc27_
305	2	4	264	1	1	0	0	64	0	0	421100064	block4_	flicker_	shape1_	black_	counterclockwise_	loc64_	notarget_	incorrect_or_nopress	block4_flicker_shape1_black_counterclockwise_notarget_incorrect_or_nopressloc64_
306	2	4	229	2	2	0	0	29	0	0	422200029	block4_	flicker_	shape2_	white_	counterclockwise_	loc29_	notarget_	incorrect_or_nopress	block4_flicker_shape2_white_counterclockwise_notarget_incorrect_or_nopressloc29_
307	2	4	256	2	1	0	0	56	0	0	422100056	block4_	flicker_	shape2_	black_	counterclockwise_	loc56_	notarget_	incorrect_or_nopress	block4_flicker_shape2_black_counterclockwise_notarget_incorrect_or_nopressloc56_
308	2	4	257	1	2	0	0	57	0	0	421200057	block4_	flicker_	shape1_	white_	counterclockwise_	loc57_	notarget_	incorrect_or_nopress	block4_flicker_shape1_white_counterclockwise_notarget_incorrect_or_nopressloc57_
309	2	4	217	2	2	0	0	17	0	0	422200017	block4_	flicker_	shape2_	white_	counterclockwise_	loc17_	notarget_	incorrect_or_nopress	block4_flicker_shape2_white_counterclockwise_notarget_incorrect_or_nopressloc17_
310	2	4	227	2	2	0	0	27	0	0	422200027	block4_	flicker_	shape2_	white_	counterclockwise_	loc27_	notarget_	incorrect_or_nopress	block4_flicker_shape2_white_counterclockwise_notarget_incorrect_or_nopressloc27_
311	2	4	235	1	1	0	0	35	0	0	421100035	block4_	flicker_	shape1_	black_	counterclockwise_	loc35_	notarget_	incorrect_or_nopress	block4_flicker_shape1_black_counterclockwise_notarget_incorrect_or_nopressloc35_
312	2	4	216	1	2	0	0	16	0	0	421200016	block4_	flicker_	shape1_	white_	counterclockwise_	loc16_	notarget_	incorrect_or_nopress	block4_flicker_shape1_white_counterclockwise_notarget_incorrect_or_nopressloc16_
313	2	4	258	1	2	0	0	58	0	0	421200058	block4_	flicker_	shape1_	white_	counterclockwise_	loc58_	notarget_	incorrect_or_nopress	block4_flicker_shape1_white_counterclockwise_notarget_incorrect_or_nopressloc58_
314	2	4	235	2	2	0	0	35	0	0	422200035	block4_	flicker_	shape2_	white_	counterclockwise_	loc35_	notarget_	incorrect_or_nopress	block4_flicker_shape2_white_counterclockwise_notarget_incorrect_or_nopressloc35_
315	2	4	208	1	1	0	0	8	0	0	421100008	block4_	flicker_	shape1_	black_	counterclockwise_	loc8_	notarget_	incorrect_or_nopress	block4_flicker_shape1_black_counterclockwise_notarget_incorrect_or_nopressloc8_
316	2	4	260	2	1	0	0	60	0	0	422100060	block4_	flicker_	shape2_	black_	counterclockwise_	loc60_	notarget_	incorrect_or_nopress	block4_flicker_shape2_black_counterclockwise_notarget_incorrect_or_nopressloc60_
317	2	4	238	1	1	0	0	38	0	0	421100038	block4_	flicker_	shape1_	black_	counterclockwise_	loc38_	notarget_	incorrect_or_nopress	block4_flicker_shape1_black_counterclockwise_notarget_incorrect_or_nopressloc38_
318	2	4	260	1	1	0	0	60	0	0	421100060	block4_	flicker_	shape1_	black_	counterclockwise_	loc60_	notarget_	incorrect_or_nopress	block4_flicker_shape1_black_counterclockwise_notarget_incorrect_or_nopressloc60_
319	2	4	250	2	2	0	0	50	0	0	422200050	block4_	flicker_	shape2_	white_	counterclockwise_	loc50_	notarget_	incorrect_or_nopress	block4_flicker_shape2_white_counterclockwise_notarget_incorrect_or_nopressloc50_
320	2	4	248	2	1	0	0	48	0	0	422100048	block4_	flicker_	shape2_	black_	counterclockwise_	loc48_	notarget_	incorrect_or_nopress	block4_flicker_shape2_black_counterclockwise_notarget_incorrect_or_nopressloc48_
321	2	4	252	1	2	0	0	52	0	0	421200052	block4_	flicker_	shape1_	white_	counterclockwise_	loc52_	notarget_	incorrect_or_nopress	block4_flicker_shape1_white_counterclockwise_notarget_incorrect_or_nopressloc52_
322	2	4	225	1	1	0	0	25	0	0	421100025	block4_	flicker_	shape1_	black_	counterclockwise_	loc25_	notarget_	incorrect_or_nopress	block4_flicker_shape1_black_counterclockwise_notarget_incorrect_or_nopressloc25_
323	2	4	220	2	1	0	0	20	0	0	422100020	block4_	flicker_	shape2_	black_	counterclockwise_	loc20_	notarget_	incorrect_or_nopress	block4_flicker_shape2_black_counterclockwise_notarget_incorrect_or_nopressloc20_
324	2	4	206	1	1	0	0	6	0	0	421100006	block4_	flicker_	shape1_	black_	counterclockwise_	loc6_	notarget_	incorrect_or_nopress	block4_flicker_shape1_black_counterclockwise_notarget_incorrect_or_nopressloc6_
325	2	4	207	1	2	0	0	7	0	0	421200007	block4_	flicker_	shape1_	white_	counterclockwise_	loc7_	notarget_	incorrect_or_nopress	block4_flicker_shape1_white_counterclockwise_notarget_incorrect_or_nopressloc7_
326	2	4	253	2	1	0	0	53	0	0	422100053	block4_	flicker_	shape2_	black_	counterclockwise_	loc53_	notarget_	incorrect_or_nopress	block4_flicker_shape2_black_counterclockwise_notarget_incorrect_or_nopressloc53_
327	2	4	249	1	2	0	0	49	0	0	421200049	block4_	flicker_	shape1_	white_	counterclockwise_	loc49_	notarget_	incorrect_or_nopress	block4_flicker_shape1_white_counterclockwise_notarget_incorrect_or_nopressloc49_
328	2	4	206	2	1	0	0	6	0	0	422100006	block4_	flicker_	shape2_	black_	counterclockwise_	loc6_	notarget_	incorrect_or_nopress	block4_flicker_shape2_black_counterclockwise_notarget_incorrect_or_nopressloc6_
329	2	4	218	1	2	0	0	18	0	0	421200018	block4_	flicker_	shape1_	white_	counterclockwise_	loc18_	notarget_	incorrect_or_nopress	block4_flicker_shape1_white_counterclockwise_notarget_incorrect_or_nopressloc18_
330	2	4	260	2	2	0	0	60	0	0	422200060	block4_	flicker_	shape2_	white_	counterclockwise_	loc60_	notarget_	incorrect_or_nopress	block4_flicker_shape2_white_counterclockwise_notarget_incorrect_or_nopressloc60_
331	2	4	248	2	2	0	0	48	0	0	422200048	block4_	flicker_	shape2_	white_	counterclockwise_	loc48_	notarget_	incorrect_or_nopress	block4_flicker_shape2_white_counterclockwise_notarget_incorrect_or_nopressloc48_
332	2	4	221	1	2	0	0	21	0	0	421200021	block4_	flicker_	shape1_	white_	counterclockwise_	loc21_	notarget_	incorrect_or_nopress	block4_flicker_shape1_white_counterclockwise_notarget_incorrect_or_nopressloc21_
333	2	4	204	2	1	0	0	4	0	0	422100004	block4_	flicker_	shape2_	black_	counterclockwise_	loc4_	notarget_	incorrect_or_nopress	block4_flicker_shape2_black_counterclockwise_notarget_incorrect_or_nopressloc4_
334	2	4	225	2	2	0	0	25	0	0	422200025	block4_	flicker_	shape2_	white_	counterclockwise_	loc25_	notarget_	incorrect_or_nopress	block4_flicker_shape2_white_counterclockwise_notarget_incorrect_or_nopressloc25_
335	2	4	254	1	1	0	0	54	0	0	421100054	block4_	flicker_	shape1_	black_	counterclockwise_	loc54_	notarget_	incorrect_or_nopress	block4_flicker_shape1_black_counterclockwise_notarget_incorrect_or_nopressloc54_
336	2	4	230	2	2	0	0	30	0	0	422200030	block4_	flicker_	shape2_	white_	counterclockwise_	loc30_	notarget_	incorrect_or_nopress	block4_flicker_shape2_white_counterclockwise_notarget_incorrect_or_nopressloc30_
337	2	4	246	1	2	0	0	46	0	0	421200046	block4_	flicker_	shape1_	white_	counterclockwise_	loc46_	notarget_	incorrect_or_nopress	block4_flicker_shape1_white_counterclockwise_notarget_incorrect_or_nopressloc46_
338	2	4	224	1	1	0	0	24	0	0	421100024	block4_	flicker_	shape1_	black_	counterclockwise_	loc24_	notarget_	incorrect_or_nopress	block4_flicker_shape1_black_counterclockwise_notarget_incorrect_or_nopressloc24_
339	2	4	203	2	1	0	0	3	0	0	422100003	block4_	flicker_	shape2_	black_	counterclockwise_	loc3_	notarget_	incorrect_or_nopress	block4_flicker_shape2_black_counterclockwise_notarget_incorrect_or_nopressloc3_
340	2	4	223	2	1	0	0	23	0	0	422100023	block4_	flicker_	shape2_	black_	counterclockwise_	loc23_	notarget_	incorrect_or_nopress	block4_flicker_shape2_black_counterclockwise_notarget_incorrect_or_nopressloc23_
341	2	4	207	2	1	0	0	7	0	0	422100007	block4_	flicker_	shape2_	black_	counterclockwise_	loc7_	notarget_	incorrect_or_nopress	block4_flicker_shape2_black_counterclockwise_notarget_incorrect_or_nopressloc7_
342	2	4	218	1	1	0	0	18	0	0	421100018	block4_	flicker_	shape1_	black_	counterclockwise_	loc18_	notarget_	incorrect_or_nopress	block4_flicker_shape1_black_counterclockwise_notarget_incorrect_or_nopressloc18_
343	2	4	203	1	1	0	0	3	0	0	421100003	block4_	flicker_	shape1_	black_	counterclockwise_	loc3_	notarget_	incorrect_or_nopress	block4_flicker_shape1_black_counterclockwise_notarget_incorrect_or_nopressloc3_
344	2	4	219	2	1	0	0	19	0	0	422100019	block4_	flicker_	shape2_	black_	counterclockwise_	loc19_	notarget_	incorrect_or_nopress	block4_flicker_shape2_black_counterclockwise_notarget_incorrect_or_nopressloc19_
345	2	4	205	1	1	0	0	5	0	0	421100005	block4_	flicker_	shape1_	black_	counterclockwise_	loc5_	notarget_	incorrect_or_nopress	block4_flicker_shape1_black_counterclockwise_notarget_incorrect_or_nopressloc5_
346	2	4	255	1	2	0	0	55	0	0	421200055	block4_	flicker_	shape1_	white_	counterclockwise_	loc55_	notarget_	incorrect_or_nopress	block4_flicker_shape1_white_counterclockwise_notarget_incorrect_or_nopressloc55_
347	2	4	217	1	2	0	0	17	0	0	421200017	block4_	flicker_	shape1_	white_	counterclockwise_	loc17_	notarget_	incorrect_or_nopress	block4_flicker_shape1_white_counterclockwise_notarget_incorrect_or_nopressloc17_
348	2	4	227	1	2	0	0	27	0	0	421200027	block4_	flicker_	shape1_	white_	counterclockwise_	loc27_	notarget_	incorrect_or_nopress	block4_flicker_shape1_white_counterclockwise_notarget_incorrect_or_nopressloc27_
349	2	4	213	2	2	0	0	13	0	0	422200013	block4_	flicker_	shape2_	white_	counterclockwise_	loc13_	notarget_	incorrect_or_nopress	block4_flicker_shape2_white_counterclockwise_notarget_incorrect_or_nopressloc13_
350	2	4	213	1	1	0	0	13	0	0	421100013	block4_	flicker_	shape1_	black_	counterclockwise_	loc13_	notarget_	incorrect_or_nopress	block4_flicker_shape1_black_counterclockwise_notarget_incorrect_or_nopressloc13_
351	2	4	229	2	1	0	0	29	0	0	422100029	block4_	flicker_	shape2_	black_	counterclockwise_	loc29_	notarget_	incorrect_or_nopress	block4_flicker_shape2_black_counterclockwise_notarget_incorrect_or_nopressloc29_
352	2	4	204	1	1	0	0	4	0	0	421100004	block4_	flicker_	shape1_	black_	counterclockwise_	loc4_	notarget_	incorrect_or_nopress	block4_flicker_shape1_black_counterclockwise_notarget_incorrect_or_nopressloc4_
353	2	4	211	1	1	0	0	11	0	0	421100011	block4_	flicker_	shape1_	black_	counterclockwise_	loc11_	notarget_	incorrect_or_nopress	block4_flicker_shape1_black_counterclockwise_notarget_incorrect_or_nopressloc11_
354	2	4	223	1	1	0	0	23	0	0	421100023	block4_	flicker_	shape1_	black_	counterclockwise_	loc23_	notarget_	incorrect_or_nopress	block4_flicker_shape1_black_counterclockwise_notarget_incorrect_or_nopressloc23_
355	2	4	249	2	2	0	0	49	0	0	422200049	block4_	flicker_	shape2_	white_	counterclockwise_	loc49_	notarget_	incorrect_or_nopress	block4_flicker_shape2_white_counterclockwise_notarget_incorrect_or_nopressloc49_
356	2	4	222	2	2	0	0	22	0	0	422200022	block4_	flicker_	shape2_	white_	counterclockwise_	loc22_	notarget_	incorrect_or_nopress	block4_flicker_shape2_white_counterclockwise_notarget_incorrect_or_nopressloc22_
357	2	4	226	2	1	0	0	26	0	0	422100026	block4_	flicker_	shape2_	black_	counterclockwise_	loc26_	notarget_	incorrect_or_nopress	block4_flicker_shape2_black_counterclockwise_notarget_incorrect_or_nopressloc26_
358	2	4	212	2	1	0	0	12	0	0	422100012	block4_	flicker_	shape2_	black_	counterclockwise_	loc12_	notarget_	incorrect_or_nopress	block4_flicker_shape2_black_counterclockwise_notarget_incorrect_or_nopressloc12_
359	2	4	251	2	1	0	0	51	0	0	422100051	block4_	flicker_	shape2_	black_	counterclockwise_	loc51_	notarget_	incorrect_or_nopress	block4_flicker_shape2_black_counterclockwise_notarget_incorrect_or_nopressloc51_
360	2	4	255	2	2	0	0	55	0	0	422200055	block4_	flicker_	shape2_	white_	counterclockwise_	loc55_	notarget_	incorrect_or_nopress	block4_flicker_shape2_white_counterclockwise_notarget_incorrect_or_nopressloc55_
361	2	4	260	1	2	0	0	60	0	0	421200060	block4_	flicker_	shape1_	white_	counterclockwise_	loc60_	notarget_	incorrect_or_nopress	block4_flicker_shape1_white_counterclockwise_notarget_incorrect_or_nopressloc60_
362	2	4	213	1	2	0	0	13	0	0	421200013	block4_	flicker_	shape1_	white_	counterclockwise_	loc13_	notarget_	incorrect_or_nopress	block4_flicker_shape1_white_counterclockwise_notarget_incorrect_or_nopressloc13_
363	2	4	230	2	1	0	0	30	0	0	422100030	block4_	flicker_	shape2_	black_	counterclockwise_	loc30_	notarget_	incorrect_or_nopress	block4_flicker_shape2_black_counterclockwise_notarget_incorrect_or_nopressloc30_
364	2	4	238	2	1	0	0	38	0	0	422100038	block4_	flicker_	shape2_	black_	counterclockwise_	loc38_	notarget_	incorrect_or_nopress	block4_flicker_shape2_black_counterclockwise_notarget_incorrect_or_nopressloc38_
365	2	4	259	2	1	0	0	59	0	0	422100059	block4_	flicker_	shape2_	black_	counterclockwise_	loc59_	notarget_	incorrect_or_nopress	block4_flicker_shape2_black_counterclockwise_notarget_incorrect_or_nopressloc59_
366	2	4	241	2	1	0	0	41	0	0	422100041	block4_	flicker_	shape2_	black_	counterclockwise_	loc41_	notarget_	incorrect_or_nopress	block4_flicker_shape2_black_counterclockwise_notarget_incorrect_or_nopressloc41_
367	2	4	225	2	1	0	0	25	0	0	422100025	block4_	flicker_	shape2_	black_	counterclockwise_	loc25_	notarget_	incorrect_or_nopress	block4_flicker_shape2_black_counterclockwise_notarget_incorrect_or_nopressloc25_
368	2	4	245	1	1	0	0	45	0	0	421100045	block4_	flicker_	shape1_	black_	counterclockwise_	loc45_	notarget_	incorrect_or_nopress	block4_flicker_shape1_black_counterclockwise_notarget_incorrect_or_nopressloc45_
369	2	4	236	2	1	0	0	36	0	0	422100036	block4_	flicker_	shape2_	black_	counterclockwise_	loc36_	notarget_	incorrect_or_nopress	block4_flicker_shape2_black_counterclockwise_notarget_incorrect_or_nopressloc36_
370	2	4	227	2	1	0	0	27	0	0	422100027	block4_	flicker_	shape2_	black_	counterclockwise_	loc27_	notarget_	incorrect_or_nopress	block4_flicker_shape2_black_counterclockwise_notarget_incorrect_or_nopressloc27_
371	2	4	242	2	2	0	0	42	0	0	422200042	block4_	flicker_	shape2_	white_	counterclockwise_	loc42_	notarget_	incorrect_or_nopress	block4_flicker_shape2_white_counterclockwise_notarget_incorrect_or_nopressloc42_
372	2	4	210	1	1	0	0	10	0	0	421100010	block4_	flicker_	shape1_	black_	counterclockwise_	loc10_	notarget_	incorrect_or_nopress	block4_flicker_shape1_black_counterclockwise_notarget_incorrect_or_nopressloc10_
373	2	4	202	1	1	0	2	2	2	0	421102002	block4_	flicker_	shape1_	black_	counterclockwise_	loc2_	padding_	incorrect_or_nopress	block4_flicker_shape1_black_counterclockwise_padding_incorrect_or_nopressloc2_
374	2	4	237	1	1	0	2	37	2	0	421102037	block4_	flicker_	shape1_	black_	counterclockwise_	loc37_	padding_	incorrect_or_nopress	block4_flicker_shape1_black_counterclockwise_padding_incorrect_or_nopressloc37_
375	2	4	250	1	2	0	2	50	2	0	421202050	block4_	flicker_	shape1_	white_	counterclockwise_	loc50_	padding_	incorrect_or_nopress	block4_flicker_shape1_white_counterclockwise_padding_incorrect_or_nopressloc50_
376	2	4	217	1	2	0	2	17	2	0	421202017	block4_	flicker_	shape1_	white_	counterclockwise_	loc17_	padding_	incorrect_or_nopress	block4_flicker_shape1_white_counterclockwise_padding_incorrect_or_nopressloc17_
377	2	4	232	2	2	0	2	32	2	0	422202032	block4_	flicker_	shape2_	white_	counterclockwise_	loc32_	padding_	incorrect_or_nopress	block4_flicker_shape2_white_counterclockwise_padding_incorrect_or_nopressloc32_
378	2	4	213	2	1	0	2	13	2	0	422102013	block4_	flicker_	shape2_	black_	counterclockwise_	loc13_	padding_	incorrect_or_nopress	block4_flicker_shape2_black_counterclockwise_padding_incorrect_or_nopressloc13_
379	2	4	220	1	2	0	2	20	2	0	421202020	block4_	flicker_	shape1_	white_	counterclockwise_	loc20_	padding_	incorrect_or_nopress	block4_flicker_shape1_white_counterclockwise_padding_incorrect_or_nopressloc20_
380	2	4	263	1	1	0	1	63	1	0	421101063	block4_	flicker_	shape1_	black_	counterclockwise_	loc63_	istarget_	incorrect_or_nopress	block4_flicker_shape1_black_counterclockwise_istarget_incorrect_or_nopressloc63_
381	2	4	229	2	2	0	2	29	2	0	422202029	block4_	flicker_	shape2_	white_	counterclockwise_	loc29_	padding_	incorrect_or_nopress	block4_flicker_shape2_white_counterclockwise_padding_incorrect_or_nopressloc29_
382	2	4	247	1	1	0	2	47	2	0	421102047	block4_	flicker_	shape1_	black_	counterclockwise_	loc47_	padding_	incorrect_or_nopress	block4_flicker_shape1_black_counterclockwise_padding_incorrect_or_nopressloc47_
383	2	4	204	2	1	0	2	4	2	0	422102004	block4_	flicker_	shape2_	black_	counterclockwise_	loc4_	padding_	incorrect_or_nopress	block4_flicker_shape2_black_counterclockwise_padding_incorrect_or_nopressloc4_
384	2	4	235	2	2	0	2	35	2	1	422202135	block4_	flicker_	shape2_	white_	counterclockwise_	loc35_	padding_	correct_or_press	block4_flicker_shape2_white_counterclockwise_padding_correct_or_pressloc35_
385	2	4	211	2	2	0	2	11	2	1	422202111	block4_	flicker_	shape2_	white_	counterclockwise_	loc11_	padding_	correct_or_press	block4_flicker_shape2_white_counterclockwise_padding_correct_or_pressloc11_
386	2	4	258	1	2	0	2	58	2	1	421202158	block4_	flicker_	shape1_	white_	counterclockwise_	loc58_	padding_	correct_or_press	block4_flicker_shape1_white_counterclockwise_padding_correct_or_pressloc58_
387	2	4	205	2	1	0	2	5	2	0	422102005	block4_	flicker_	shape2_	black_	counterclockwise_	loc5_	padding_	incorrect_or_nopress	block4_flicker_shape2_black_counterclockwise_padding_incorrect_or_nopressloc5_
388	2	4	226	2	1	0	2	26	2	0	422102026	block4_	flicker_	shape2_	black_	counterclockwise_	loc26_	padding_	incorrect_or_nopress	block4_flicker_shape2_black_counterclockwise_padding_incorrect_or_nopressloc26_
389	2	4	222	1	2	0	0	22	0	0	421200022	block4_	flicker_	shape1_	white_	counterclockwise_	loc22_	notarget_	incorrect_or_nopress	block4_flicker_shape1_white_counterclockwise_notarget_incorrect_or_nopressloc22_
390	2	4	241	1	2	0	0	41	0	0	421200041	block4_	flicker_	shape1_	white_	counterclockwise_	loc41_	notarget_	incorrect_or_nopress	block4_flicker_shape1_white_counterclockwise_notarget_incorrect_or_nopressloc41_
391	2	4	231	1	2	0	0	31	0	0	421200031	block4_	flicker_	shape1_	white_	counterclockwise_	loc31_	notarget_	incorrect_or_nopress	block4_flicker_shape1_white_counterclockwise_notarget_incorrect_or_nopressloc31_
392	2	4	264	2	1	0	0	64	0	0	422100064	block4_	flicker_	shape2_	black_	counterclockwise_	loc64_	notarget_	incorrect_or_nopress	block4_flicker_shape2_black_counterclockwise_notarget_incorrect_or_nopressloc64_
393	2	4	237	2	1	0	0	37	0	0	422100037	block4_	flicker_	shape2_	black_	counterclockwise_	loc37_	notarget_	incorrect_or_nopress	block4_flicker_shape2_black_counterclockwise_notarget_incorrect_or_nopressloc37_
394	2	4	245	1	2	0	0	45	0	0	421200045	block4_	flicker_	shape1_	white_	counterclockwise_	loc45_	notarget_	incorrect_or_nopress	block4_flicker_shape1_white_counterclockwise_notarget_incorrect_or_nopressloc45_
395	2	4	214	1	1	0	0	14	0	0	421100014	block4_	flicker_	shape1_	black_	counterclockwise_	loc14_	notarget_	incorrect_or_nopress	block4_flicker_shape1_black_counterclockwise_notarget_incorrect_or_nopressloc14_
396	2	4	215	1	1	0	0	15	0	0	421100015	block4_	flicker_	shape1_	black_	counterclockwise_	loc15_	notarget_	incorrect_or_nopress	block4_flicker_shape1_black_counterclockwise_notarget_incorrect_or_nopressloc15_
397	2	4	231	2	2	0	0	31	0	0	422200031	block4_	flicker_	shape2_	white_	counterclockwise_	loc31_	notarget_	incorrect_or_nopress	block4_flicker_shape2_white_counterclockwise_notarget_incorrect_or_nopressloc31_
398	2	4	212	2	2	0	0	12	0	0	422200012	block4_	flicker_	shape2_	white_	counterclockwise_	loc12_	notarget_	incorrect_or_nopress	block4_flicker_shape2_white_counterclockwise_notarget_incorrect_or_nopressloc12_
399	2	4	221	2	2	0	0	21	0	0	422200021	block4_	flicker_	shape2_	white_	counterclockwise_	loc21_	notarget_	incorrect_or_nopress	block4_flicker_shape2_white_counterclockwise_notarget_incorrect_or_nopressloc21_
400	2	4	239	1	1	0	0	39	0	0	421100039	block4_	flicker_	shape1_	black_	counterclockwise_	loc39_	notarget_	incorrect_or_nopress	block4_flicker_shape1_black_counterclockwise_notarget_incorrect_or_nopressloc39_
401	2	4	205	2	2	0	0	5	0	0	422200005	block4_	flicker_	shape2_	white_	counterclockwise_	loc5_	notarget_	incorrect_or_nopress	block4_flicker_shape2_white_counterclockwise_notarget_incorrect_or_nopressloc5_
402	2	4	249	1	1	0	0	49	0	0	421100049	block4_	flicker_	shape1_	black_	counterclockwise_	loc49_	notarget_	incorrect_or_nopress	block4_flicker_shape1_black_counterclockwise_notarget_incorrect_or_nopressloc49_
403	2	4	231	2	1	0	2	31	2	0	422102031	block4_	flicker_	shape2_	black_	counterclockwise_	loc31_	padding_	incorrect_or_nopress	block4_flicker_shape2_black_counterclockwise_padding_incorrect_or_nopressloc31_
404	2	4	254	1	2	0	0	54	0	0	421200054	block4_	flicker_	shape1_	white_	counterclockwise_	loc54_	notarget_	incorrect_or_nopress	block4_flicker_shape1_white_counterclockwise_notarget_incorrect_or_nopressloc54_
405	2	4	211	1	1	0	0	11	0	0	421100011	block4_	flicker_	shape1_	black_	counterclockwise_	loc11_	notarget_	incorrect_or_nopress	block4_flicker_shape1_black_counterclockwise_notarget_incorrect_or_nopressloc11_
406	2	4	215	1	1	0	0	15	0	0	421100015	block4_	flicker_	shape1_	black_	counterclockwise_	loc15_	notarget_	incorrect_or_nopress	block4_flicker_shape1_black_counterclockwise_notarget_incorrect_or_nopressloc15_
407	2	4	203	2	1	0	0	3	0	0	422100003	block4_	flicker_	shape2_	black_	counterclockwise_	loc3_	notarget_	incorrect_or_nopress	block4_flicker_shape2_black_counterclockwise_notarget_incorrect_or_nopressloc3_
408	2	4	201	1	1	0	0	1	0	0	421100001	block4_	flicker_	shape1_	black_	counterclockwise_	loc1_	notarget_	incorrect_or_nopress	block4_flicker_shape1_black_counterclockwise_notarget_incorrect_or_nopressloc1_
409	2	4	229	2	2	0	0	29	0	0	422200029	block4_	flicker_	shape2_	white_	counterclockwise_	loc29_	notarget_	incorrect_or_nopress	block4_flicker_shape2_white_counterclockwise_notarget_incorrect_or_nopressloc29_
410	2	4	256	2	1	0	0	56	0	0	422100056	block4_	flicker_	shape2_	black_	counterclockwise_	loc56_	notarget_	incorrect_or_nopress	block4_flicker_shape2_black_counterclockwise_notarget_incorrect_or_nopressloc56_
411	2	4	208	1	1	0	0	8	0	0	421100008	block4_	flicker_	shape1_	black_	counterclockwise_	loc8_	notarget_	incorrect_or_nopress	block4_flicker_shape1_black_counterclockwise_notarget_incorrect_or_nopressloc8_
412	2	4	236	1	2	0	0	36	0	0	421200036	block4_	flicker_	shape1_	white_	counterclockwise_	loc36_	notarget_	incorrect_or_nopress	block4_flicker_shape1_white_counterclockwise_notarget_incorrect_or_nopressloc36_
413	2	4	254	1	1	0	0	54	0	0	421100054	block4_	flicker_	shape1_	black_	counterclockwise_	loc54_	notarget_	incorrect_or_nopress	block4_flicker_shape1_black_counterclockwise_notarget_incorrect_or_nopressloc54_
414	2	4	214	1	1	0	0	14	0	0	421100014	block4_	flicker_	shape1_	black_	counterclockwise_	loc14_	notarget_	incorrect_or_nopress	block4_flicker_shape1_black_counterclockwise_notarget_incorrect_or_nopressloc14_
415	2	4	244	2	2	0	0	44	0	0	422200044	block4_	flicker_	shape2_	white_	counterclockwise_	loc44_	notarget_	incorrect_or_nopress	block4_flicker_shape2_white_counterclockwise_notarget_incorrect_or_nopressloc44_
416	2	4	231	2	1	0	0	31	0	0	422100031	block4_	flicker_	shape2_	black_	counterclockwise_	loc31_	notarget_	incorrect_or_nopress	block4_flicker_shape2_black_counterclockwise_notarget_incorrect_or_nopressloc31_
417	2	4	222	2	2	0	0	22	0	0	422200022	block4_	flicker_	shape2_	white_	counterclockwise_	loc22_	notarget_	incorrect_or_nopress	block4_flicker_shape2_white_counterclockwise_notarget_incorrect_or_nopressloc22_
418	2	4	250	2	2	0	0	50	0	0	422200050	block4_	flicker_	shape2_	white_	counterclockwise_	loc50_	notarget_	incorrect_or_nopress	block4_flicker_shape2_white_counterclockwise_notarget_incorrect_or_nopressloc50_
419	2	4	207	2	1	0	0	7	0	0	422100007	block4_	flicker_	shape2_	black_	counterclockwise_	loc7_	notarget_	incorrect_or_nopress	block4_flicker_shape2_black_counterclockwise_notarget_incorrect_or_nopressloc7_
420	2	4	204	1	2	0	0	4	0	0	421200004	block4_	flicker_	shape1_	white_	counterclockwise_	loc4_	notarget_	incorrect_or_nopress	block4_flicker_shape1_white_counterclockwise_notarget_incorrect_or_nopressloc4_
421	2	4	213	1	2	0	0	13	0	0	421200013	block4_	flicker_	shape1_	white_	counterclockwise_	loc13_	notarget_	incorrect_or_nopress	block4_flicker_shape1_white_counterclockwise_notarget_incorrect_or_nopressloc13_
422	2	4	224	2	1	0	0	24	0	0	422100024	block4_	flicker_	shape2_	black_	counterclockwise_	loc24_	notarget_	incorrect_or_nopress	block4_flicker_shape2_black_counterclockwise_notarget_incorrect_or_nopressloc24_
423	2	4	247	2	1	0	0	47	0	0	422100047	block4_	flicker_	shape2_	black_	counterclockwise_	loc47_	notarget_	incorrect_or_nopress	block4_flicker_shape2_black_counterclockwise_notarget_incorrect_or_nopressloc47_
424	2	4	246	2	2	0	0	46	0	0	422200046	block4_	flicker_	shape2_	white_	counterclockwise_	loc46_	notarget_	incorrect_or_nopress	block4_flicker_shape2_white_counterclockwise_notarget_incorrect_or_nopressloc46_
425	2	4	243	1	2	0	0	43	0	0	421200043	block4_	flicker_	shape1_	white_	counterclockwise_	loc43_	notarget_	incorrect_or_nopress	block4_flicker_shape1_white_counterclockwise_notarget_incorrect_or_nopressloc43_
426	2	4	231	2	2	0	0	31	0	0	422200031	block4_	flicker_	shape2_	white_	counterclockwise_	loc31_	notarget_	incorrect_or_nopress	block4_flicker_shape2_white_counterclockwise_notarget_incorrect_or_nopressloc31_
427	2	4	258	2	2	0	0	58	0	0	422200058	block4_	flicker_	shape2_	white_	counterclockwise_	loc58_	notarget_	incorrect_or_nopress	block4_flicker_shape2_white_counterclockwise_notarget_incorrect_or_nopressloc58_
428	2	4	250	1	2	0	0	50	0	0	421200050	block4_	flicker_	shape1_	white_	counterclockwise_	loc50_	notarget_	incorrect_or_nopress	block4_flicker_shape1_white_counterclockwise_notarget_incorrect_or_nopressloc50_
429	2	4	223	2	1	0	0	23	0	0	422100023	block4_	flicker_	shape2_	black_	counterclockwise_	loc23_	notarget_	incorrect_or_nopress	block4_flicker_shape2_black_counterclockwise_notarget_incorrect_or_nopressloc23_
430	2	4	246	2	1	0	0	46	0	0	422100046	block4_	flicker_	shape2_	black_	counterclockwise_	loc46_	notarget_	incorrect_or_nopress	block4_flicker_shape2_black_counterclockwise_notarget_incorrect_or_nopressloc46_
431	2	4	212	1	1	0	0	12	0	0	421100012	block4_	flicker_	shape1_	black_	counterclockwise_	loc12_	notarget_	incorrect_or_nopress	block4_flicker_shape1_black_counterclockwise_notarget_incorrect_or_nopressloc12_
432	2	4	217	2	2	0	0	17	0	0	422200017	block4_	flicker_	shape2_	white_	counterclockwise_	loc17_	notarget_	incorrect_or_nopress	block4_flicker_shape2_white_counterclockwise_notarget_incorrect_or_nopressloc17_
433	2	4	221	2	1	0	0	21	0	0	422100021	block4_	flicker_	shape2_	black_	counterclockwise_	loc21_	notarget_	incorrect_or_nopress	block4_flicker_shape2_black_counterclockwise_notarget_incorrect_or_nopressloc21_
434	2	4	206	2	2	0	0	6	0	0	422200006	block4_	flicker_	shape2_	white_	counterclockwise_	loc6_	notarget_	incorrect_or_nopress	block4_flicker_shape2_white_counterclockwise_notarget_incorrect_or_nopressloc6_
435	2	4	218	1	2	0	0	18	0	0	421200018	block4_	flicker_	shape1_	white_	counterclockwise_	loc18_	notarget_	incorrect_or_nopress	block4_flicker_shape1_white_counterclockwise_notarget_incorrect_or_nopressloc18_
436	2	4	233	2	1	0	0	33	0	0	422100033	block4_	flicker_	shape2_	black_	counterclockwise_	loc33_	notarget_	incorrect_or_nopress	block4_flicker_shape2_black_counterclockwise_notarget_incorrect_or_nopressloc33_
437	2	4	218	2	1	0	0	18	0	0	422100018	block4_	flicker_	shape2_	black_	counterclockwise_	loc18_	notarget_	incorrect_or_nopress	block4_flicker_shape2_black_counterclockwise_notarget_incorrect_or_nopressloc18_
438	2	4	239	1	2	0	0	39	0	0	421200039	block4_	flicker_	shape1_	white_	counterclockwise_	loc39_	notarget_	incorrect_or_nopress	block4_flicker_shape1_white_counterclockwise_notarget_incorrect_or_nopressloc39_
439	2	4	245	2	2	0	0	45	0	0	422200045	block4_	flicker_	shape2_	white_	counterclockwise_	loc45_	notarget_	incorrect_or_nopress	block4_flicker_shape2_white_counterclockwise_notarget_incorrect_or_nopressloc45_
440	2	4	226	2	1	0	0	26	0	0	422100026	block4_	flicker_	shape2_	black_	counterclockwise_	loc26_	notarget_	incorrect_or_nopress	block4_flicker_shape2_black_counterclockwise_notarget_incorrect_or_nopressloc26_
441	2	4	225	2	2	0	0	25	0	0	422200025	block4_	flicker_	shape2_	white_	counterclockwise_	loc25_	notarget_	incorrect_or_nopress	block4_flicker_shape2_white_counterclockwise_notarget_incorrect_or_nopressloc25_
442	2	4	203	1	1	0	0	3	0	0	421100003	block4_	flicker_	shape1_	black_	counterclockwise_	loc3_	notarget_	incorrect_or_nopress	block4_flicker_shape1_black_counterclockwise_notarget_incorrect_or_nopressloc3_
443	2	4	204	2	1	0	0	4	0	0	422100004	block4_	flicker_	shape2_	black_	counterclockwise_	loc4_	notarget_	incorrect_or_nopress	block4_flicker_shape2_black_counterclockwise_notarget_incorrect_or_nopressloc4_
444	2	4	256	1	1	0	0	56	0	0	421100056	block4_	flicker_	shape1_	black_	counterclockwise_	loc56_	notarget_	incorrect_or_nopress	block4_flicker_shape1_black_counterclockwise_notarget_incorrect_or_nopressloc56_
445	2	4	219	1	2	0	0	19	0	0	421200019	block4_	flicker_	shape1_	white_	counterclockwise_	loc19_	notarget_	incorrect_or_nopress	block4_flicker_shape1_white_counterclockwise_notarget_incorrect_or_nopressloc19_
446	2	4	248	1	1	0	0	48	0	0	421100048	block4_	flicker_	shape1_	black_	counterclockwise_	loc48_	notarget_	incorrect_or_nopress	block4_flicker_shape1_black_counterclockwise_notarget_incorrect_or_nopressloc48_
447	2	4	253	2	2	0	0	53	0	0	422200053	block4_	flicker_	shape2_	white_	counterclockwise_	loc53_	notarget_	incorrect_or_nopress	block4_flicker_shape2_white_counterclockwise_notarget_incorrect_or_nopressloc53_
448	2	4	205	1	1	0	0	5	0	0	421100005	block4_	flicker_	shape1_	black_	counterclockwise_	loc5_	notarget_	incorrect_or_nopress	block4_flicker_shape1_black_counterclockwise_notarget_incorrect_or_nopressloc5_
449	2	4	226	1	1	0	0	26	0	0	421100026	block4_	flicker_	shape1_	black_	counterclockwise_	loc26_	notarget_	incorrect_or_nopress	block4_flicker_shape1_black_counterclockwise_notarget_incorrect_or_nopressloc26_
450	2	4	216	2	2	0	0	16	0	0	422200016	block4_	flicker_	shape2_	white_	counterclockwise_	loc16_	notarget_	incorrect_or_nopress	block4_flicker_shape2_white_counterclockwise_notarget_incorrect_or_nopressloc16_
451	2	4	247	1	1	0	0	47	0	0	421100047	block4_	flicker_	shape1_	black_	counterclockwise_	loc47_	notarget_	incorrect_or_nopress	block4_flicker_shape1_black_counterclockwise_notarget_incorrect_or_nopressloc47_
452	2	4	234	2	1	0	0	34	0	0	422100034	block4_	flicker_	shape2_	black_	counterclockwise_	loc34_	notarget_	incorrect_or_nopress	block4_flicker_shape2_black_counterclockwise_notarget_incorrect_or_nopressloc34_
453	2	4	237	2	1	0	0	37	0	0	422100037	block4_	flicker_	shape2_	black_	counterclockwise_	loc37_	notarget_	incorrect_or_nopress	block4_flicker_shape2_black_counterclockwise_notarget_incorrect_or_nopressloc37_
454	2	4	237	2	2	0	0	37	0	0	422200037	block4_	flicker_	shape2_	white_	counterclockwise_	loc37_	notarget_	incorrect_or_nopress	block4_flicker_shape2_white_counterclockwise_notarget_incorrect_or_nopressloc37_
455	2	4	209	2	2	0	0	9	0	0	422200009	block4_	flicker_	shape2_	white_	counterclockwise_	loc9_	notarget_	incorrect_or_nopress	block4_flicker_shape2_white_counterclockwise_notarget_incorrect_or_nopressloc9_
456	2	4	234	1	2	0	0	34	0	0	421200034	block4_	flicker_	shape1_	white_	counterclockwise_	loc34_	notarget_	incorrect_or_nopress	block4_flicker_shape1_white_counterclockwise_notarget_incorrect_or_nopressloc34_
457	2	4	255	2	1	0	0	55	0	0	422100055	block4_	flicker_	shape2_	black_	counterclockwise_	loc55_	notarget_	incorrect_or_nopress	block4_flicker_shape2_black_counterclockwise_notarget_incorrect_or_nopressloc55_
458	2	4	233	2	2	0	0	33	0	0	422200033	block4_	flicker_	shape2_	white_	counterclockwise_	loc33_	notarget_	incorrect_or_nopress	block4_flicker_shape2_white_counterclockwise_notarget_incorrect_or_nopressloc33_
459	2	4	254	2	1	0	0	54	0	0	422100054	block4_	flicker_	shape2_	black_	counterclockwise_	loc54_	notarget_	incorrect_or_nopress	block4_flicker_shape2_black_counterclockwise_notarget_incorrect_or_nopressloc54_
460	2	4	219	2	1	0	0	19	0	0	422100019	block4_	flicker_	shape2_	black_	counterclockwise_	loc19_	notarget_	incorrect_or_nopress	block4_flicker_shape2_black_counterclockwise_notarget_incorrect_or_nopressloc19_
461	2	4	206	1	1	0	0	6	0	0	421100006	block4_	flicker_	shape1_	black_	counterclockwise_	loc6_	notarget_	incorrect_or_nopress	block4_flicker_shape1_black_counterclockwise_notarget_incorrect_or_nopressloc6_
462	2	4	251	2	1	0	0	51	0	0	422100051	block4_	flicker_	shape2_	black_	counterclockwise_	loc51_	notarget_	incorrect_or_nopress	block4_flicker_shape2_black_counterclockwise_notarget_incorrect_or_nopressloc51_
463	2	4	224	1	2	0	0	24	0	0	421200024	block4_	flicker_	shape1_	white_	counterclockwise_	loc24_	notarget_	incorrect_or_nopress	block4_flicker_shape1_white_counterclockwise_notarget_incorrect_or_nopressloc24_
464	2	4	230	2	2	0	0	30	0	0	422200030	block4_	flicker_	shape2_	white_	counterclockwise_	loc30_	notarget_	incorrect_or_nopress	block4_flicker_shape2_white_counterclockwise_notarget_incorrect_or_nopressloc30_
465	2	4	242	2	1	0	0	42	0	0	422100042	block4_	flicker_	shape2_	black_	counterclockwise_	loc42_	notarget_	incorrect_or_nopress	block4_flicker_shape2_black_counterclockwise_notarget_incorrect_or_nopressloc42_
466	2	4	206	2	1	0	0	6	0	0	422100006	block4_	flicker_	shape2_	black_	counterclockwise_	loc6_	notarget_	incorrect_or_nopress	block4_flicker_shape2_black_counterclockwise_notarget_incorrect_or_nopressloc6_
467	2	4	232	1	2	0	0	32	0	0	421200032	block4_	flicker_	shape1_	white_	counterclockwise_	loc32_	notarget_	incorrect_or_nopress	block4_flicker_shape1_white_counterclockwise_notarget_incorrect_or_nopressloc32_
468	2	4	202	1	1	0	0	2	0	0	421100002	block4_	flicker_	shape1_	black_	counterclockwise_	loc2_	notarget_	incorrect_or_nopress	block4_flicker_shape1_black_counterclockwise_notarget_incorrect_or_nopressloc2_
469	2	4	258	2	1	0	0	58	0	0	422100058	block4_	flicker_	shape2_	black_	counterclockwise_	loc58_	notarget_	incorrect_or_nopress	block4_flicker_shape2_black_counterclockwise_notarget_incorrect_or_nopressloc58_
470	2	4	213	2	1	0	0	13	0	0	422100013	block4_	flicker_	shape2_	black_	counterclockwise_	loc13_	notarget_	incorrect_or_nopress	block4_flicker_shape2_black_counterclockwise_notarget_incorrect_or_nopressloc13_
471	2	4	220	2	2	0	0	20	0	0	422200020	block4_	flicker_	shape2_	white_	counterclockwise_	loc20_	notarget_	incorrect_or_nopress	block4_flicker_shape2_white_counterclockwise_notarget_incorrect_or_nopressloc20_
472	2	4	204	2	2	0	0	4	0	0	422200004	block4_	flicker_	shape2_	white_	counterclockwise_	loc4_	notarget_	incorrect_or_nopress	block4_flicker_shape2_white_counterclockwise_notarget_incorrect_or_nopressloc4_
473	2	4	237	1	1	0	0	37	0	0	421100037	block4_	flicker_	shape1_	black_	counterclockwise_	loc37_	notarget_	incorrect_or_nopress	block4_flicker_shape1_black_counterclockwise_notarget_incorrect_or_nopressloc37_
474	2	4	204	1	1	0	0	4	0	0	421100004	block4_	flicker_	shape1_	black_	counterclockwise_	loc4_	notarget_	incorrect_or_nopress	block4_flicker_shape1_black_counterclockwise_notarget_incorrect_or_nopressloc4_
475	2	4	256	1	2	0	0	56	0	0	421200056	block4_	flicker_	shape1_	white_	counterclockwise_	loc56_	notarget_	incorrect_or_nopress	block4_flicker_shape1_white_counterclockwise_notarget_incorrect_or_nopressloc56_
476	2	4	240	1	2	0	0	40	0	0	421200040	block4_	flicker_	shape1_	white_	counterclockwise_	loc40_	notarget_	incorrect_or_nopress	block4_flicker_shape1_white_counterclockwise_notarget_incorrect_or_nopressloc40_
477	2	4	210	1	1	0	0	10	0	0	421100010	block4_	flicker_	shape1_	black_	counterclockwise_	loc10_	notarget_	incorrect_or_nopress	block4_flicker_shape1_black_counterclockwise_notarget_incorrect_or_nopressloc10_
478	2	4	238	1	1	0	0	38	0	0	421100038	block4_	flicker_	shape1_	black_	counterclockwise_	loc38_	notarget_	incorrect_or_nopress	block4_flicker_shape1_black_counterclockwise_notarget_incorrect_or_nopressloc38_
479	2	4	252	1	1	0	0	52	0	0	421100052	block4_	flicker_	shape1_	black_	counterclockwise_	loc52_	notarget_	incorrect_or_nopress	block4_flicker_shape1_black_counterclockwise_notarget_incorrect_or_nopressloc52_
480	2	4	241	2	2	0	0	41	0	0	422200041	block4_	flicker_	shape2_	white_	counterclockwise_	loc41_	notarget_	incorrect_or_nopress	block4_flicker_shape2_white_counterclockwise_notarget_incorrect_or_nopressloc41_
481	2	4	254	2	2	0	0	54	0	0	422200054	block4_	flicker_	shape2_	white_	counterclockwise_	loc54_	notarget_	incorrect_or_nopress	block4_flicker_shape2_white_counterclockwise_notarget_incorrect_or_nopressloc54_
482	2	4	214	1	2	0	0	14	0	0	421200014	block4_	flicker_	shape1_	white_	counterclockwise_	loc14_	notarget_	incorrect_or_nopress	block4_flicker_shape1_white_counterclockwise_notarget_incorrect_or_nopressloc14_
483	2	4	234	1	1	0	0	34	0	0	421100034	block4_	flicker_	shape1_	black_	counterclockwise_	loc34_	notarget_	incorrect_or_nopress	block4_flicker_shape1_black_counterclockwise_notarget_incorrect_or_nopressloc34_
484	2	4	260	1	1	0	0	60	0	0	421100060	block4_	flicker_	shape1_	black_	counterclockwise_	loc60_	notarget_	incorrect_or_nopress	block4_flicker_shape1_black_counterclockwise_notarget_incorrect_or_nopressloc60_
485	2	4	260	2	1	0	0	60	0	0	422100060	block4_	flicker_	shape2_	black_	counterclockwise_	loc60_	notarget_	incorrect_or_nopress	block4_flicker_shape2_black_counterclockwise_notarget_incorrect_or_nopressloc60_
