	trial_type	block_num	trialID	shape	colour	direction	istarget	start_loc	target_position	accuracy_or_button	unique_ID	block_num_mod	trial_type_mod	shape_mod	colour_mod	direction_mod	start_loc_mod	istarget_mod	accuracy_or_button_mod	condition_name
0	1	2	130	2	2	1	0	2	0	0	212210002	block2_	disappearance_	shape2_	white_	clockwise_	loc2_	notarget_	incorrect_or_nopress	block2_disappearance_shape2_white_clockwise_notarget_incorrect_or_nopressloc2_
1	1	2	132	2	2	1	0	4	0	1	212210104	block2_	disappearance_	shape2_	white_	clockwise_	loc4_	notarget_	correct_or_press	block2_disappearance_shape2_white_clockwise_notarget_correct_or_pressloc4_
2	1	2	111	1	2	2	0	3	0	1	211220103	block2_	disappearance_	shape1_	white_	counterclockwise_	loc3_	notarget_	correct_or_press	block2_disappearance_shape1_white_counterclockwise_notarget_correct_or_pressloc3_
3	1	2	131	2	2	1	0	3	0	1	212210103	block2_	disappearance_	shape2_	white_	clockwise_	loc3_	notarget_	correct_or_press	block2_disappearance_shape2_white_clockwise_notarget_correct_or_pressloc3_
4	1	2	126	2	2	2	0	2	0	1	212220102	block2_	disappearance_	shape2_	white_	counterclockwise_	loc2_	notarget_	correct_or_press	block2_disappearance_shape2_white_counterclockwise_notarget_correct_or_pressloc2_
5	1	2	114	1	2	1	1	2	16	1	211211102	block2_	disappearance_	shape1_	white_	clockwise_	loc2_	istarget_	correct_or_press	block2_disappearance_shape1_white_clockwise_istarget_correct_or_pressloc2_
6	1	2	106	1	1	1	0	2	0	1	211110102	block2_	disappearance_	shape1_	black_	clockwise_	loc2_	notarget_	correct_or_press	block2_disappearance_shape1_black_clockwise_notarget_correct_or_pressloc2_
7	1	2	110	1	2	2	0	2	0	1	211220102	block2_	disappearance_	shape1_	white_	counterclockwise_	loc2_	notarget_	correct_or_press	block2_disappearance_shape1_white_counterclockwise_notarget_correct_or_pressloc2_
8	1	2	107	1	1	1	0	3	0	1	211110103	block2_	disappearance_	shape1_	black_	clockwise_	loc3_	notarget_	correct_or_press	block2_disappearance_shape1_black_clockwise_notarget_correct_or_pressloc3_
9	1	2	102	1	1	2	0	2	0	1	211120102	block2_	disappearance_	shape1_	black_	counterclockwise_	loc2_	notarget_	correct_or_press	block2_disappearance_shape1_black_counterclockwise_notarget_correct_or_pressloc2_
10	1	2	115	1	2	1	0	3	0	1	211210103	block2_	disappearance_	shape1_	white_	clockwise_	loc3_	notarget_	correct_or_press	block2_disappearance_shape1_white_clockwise_notarget_correct_or_pressloc3_
11	1	2	132	2	2	1	0	4	0	1	212210104	block2_	disappearance_	shape2_	white_	clockwise_	loc4_	notarget_	correct_or_press	block2_disappearance_shape2_white_clockwise_notarget_correct_or_pressloc4_
12	1	2	109	1	2	2	0	1	0	1	211220101	block2_	disappearance_	shape1_	white_	counterclockwise_	loc1_	notarget_	correct_or_press	block2_disappearance_shape1_white_counterclockwise_notarget_correct_or_pressloc1_
13	1	2	129	2	2	1	0	1	0	1	212210101	block2_	disappearance_	shape2_	white_	clockwise_	loc1_	notarget_	correct_or_press	block2_disappearance_shape2_white_clockwise_notarget_correct_or_pressloc1_
14	1	2	124	2	1	1	0	4	0	1	212110104	block2_	disappearance_	shape2_	black_	clockwise_	loc4_	notarget_	correct_or_press	block2_disappearance_shape2_black_clockwise_notarget_correct_or_pressloc4_
15	1	2	122	2	1	1	0	2	0	1	212110102	block2_	disappearance_	shape2_	black_	clockwise_	loc2_	notarget_	correct_or_press	block2_disappearance_shape2_black_clockwise_notarget_correct_or_pressloc2_
16	1	2	125	2	2	2	0	1	0	1	212220101	block2_	disappearance_	shape2_	white_	counterclockwise_	loc1_	notarget_	correct_or_press	block2_disappearance_shape2_white_counterclockwise_notarget_correct_or_pressloc1_
17	1	2	115	1	2	1	1	3	21	1	211211103	block2_	disappearance_	shape1_	white_	clockwise_	loc3_	istarget_	correct_or_press	block2_disappearance_shape1_white_clockwise_istarget_correct_or_pressloc3_
18	1	2	124	2	1	1	1	4	13	1	212111104	block2_	disappearance_	shape2_	black_	clockwise_	loc4_	istarget_	correct_or_press	block2_disappearance_shape2_black_clockwise_istarget_correct_or_pressloc4_
19	1	2	129	2	2	1	1	1	21	1	212211101	block2_	disappearance_	shape2_	white_	clockwise_	loc1_	istarget_	correct_or_press	block2_disappearance_shape2_white_clockwise_istarget_correct_or_pressloc1_
20	1	2	112	1	2	2	0	4	0	1	211220104	block2_	disappearance_	shape1_	white_	counterclockwise_	loc4_	notarget_	correct_or_press	block2_disappearance_shape1_white_counterclockwise_notarget_correct_or_pressloc4_
21	1	2	105	1	1	1	0	1	0	1	211110101	block2_	disappearance_	shape1_	black_	clockwise_	loc1_	notarget_	correct_or_press	block2_disappearance_shape1_black_clockwise_notarget_correct_or_pressloc1_
22	1	2	103	1	1	2	0	3	0	1	211120103	block2_	disappearance_	shape1_	black_	counterclockwise_	loc3_	notarget_	correct_or_press	block2_disappearance_shape1_black_counterclockwise_notarget_correct_or_pressloc3_
23	1	2	132	2	2	1	1	4	15	1	212211104	block2_	disappearance_	shape2_	white_	clockwise_	loc4_	istarget_	correct_or_press	block2_disappearance_shape2_white_clockwise_istarget_correct_or_pressloc4_
24	1	2	128	2	2	2	0	4	0	1	212220104	block2_	disappearance_	shape2_	white_	counterclockwise_	loc4_	notarget_	correct_or_press	block2_disappearance_shape2_white_counterclockwise_notarget_correct_or_pressloc4_
25	1	2	114	1	2	1	0	2	0	1	211210102	block2_	disappearance_	shape1_	white_	clockwise_	loc2_	notarget_	correct_or_press	block2_disappearance_shape1_white_clockwise_notarget_correct_or_pressloc2_
26	1	2	108	1	1	1	0	4	0	1	211110104	block2_	disappearance_	shape1_	black_	clockwise_	loc4_	notarget_	correct_or_press	block2_disappearance_shape1_black_clockwise_notarget_correct_or_pressloc4_
27	1	2	114	1	2	1	0	2	0	1	211210102	block2_	disappearance_	shape1_	white_	clockwise_	loc2_	notarget_	correct_or_press	block2_disappearance_shape1_white_clockwise_notarget_correct_or_pressloc2_
28	1	2	125	2	2	2	0	1	0	1	212220101	block2_	disappearance_	shape2_	white_	counterclockwise_	loc1_	notarget_	correct_or_press	block2_disappearance_shape2_white_counterclockwise_notarget_correct_or_pressloc1_
29	1	2	122	2	1	1	0	2	0	1	212110102	block2_	disappearance_	shape2_	black_	clockwise_	loc2_	notarget_	correct_or_press	block2_disappearance_shape2_black_clockwise_notarget_correct_or_pressloc2_
30	1	2	113	1	2	1	0	1	0	1	211210101	block2_	disappearance_	shape1_	white_	clockwise_	loc1_	notarget_	correct_or_press	block2_disappearance_shape1_white_clockwise_notarget_correct_or_pressloc1_
31	1	2	125	2	2	2	0	1	0	1	212220101	block2_	disappearance_	shape2_	white_	counterclockwise_	loc1_	notarget_	correct_or_press	block2_disappearance_shape2_white_counterclockwise_notarget_correct_or_pressloc1_
32	1	2	121	2	1	1	0	1	0	1	212110101	block2_	disappearance_	shape2_	black_	clockwise_	loc1_	notarget_	correct_or_press	block2_disappearance_shape2_black_clockwise_notarget_correct_or_pressloc1_
33	1	2	109	1	2	2	0	1	0	1	211220101	block2_	disappearance_	shape1_	white_	counterclockwise_	loc1_	notarget_	correct_or_press	block2_disappearance_shape1_white_counterclockwise_notarget_correct_or_pressloc1_
34	1	2	115	1	2	1	0	3	0	1	211210103	block2_	disappearance_	shape1_	white_	clockwise_	loc3_	notarget_	correct_or_press	block2_disappearance_shape1_white_clockwise_notarget_correct_or_pressloc3_
35	1	2	101	1	1	2	0	1	0	1	211120101	block2_	disappearance_	shape1_	black_	counterclockwise_	loc1_	notarget_	correct_or_press	block2_disappearance_shape1_black_counterclockwise_notarget_correct_or_pressloc1_
36	1	2	108	1	1	1	1	4	20	1	211111104	block2_	disappearance_	shape1_	black_	clockwise_	loc4_	istarget_	correct_or_press	block2_disappearance_shape1_black_clockwise_istarget_correct_or_pressloc4_
37	1	2	112	1	2	2	0	4	0	1	211220104	block2_	disappearance_	shape1_	white_	counterclockwise_	loc4_	notarget_	correct_or_press	block2_disappearance_shape1_white_counterclockwise_notarget_correct_or_pressloc4_
38	1	2	132	2	2	1	0	4	0	1	212210104	block2_	disappearance_	shape2_	white_	clockwise_	loc4_	notarget_	correct_or_press	block2_disappearance_shape2_white_clockwise_notarget_correct_or_pressloc4_
39	1	2	119	2	1	2	0	3	0	1	212120103	block2_	disappearance_	shape2_	black_	counterclockwise_	loc3_	notarget_	correct_or_press	block2_disappearance_shape2_black_counterclockwise_notarget_correct_or_pressloc3_
40	1	2	120	2	1	2	0	4	0	1	212120104	block2_	disappearance_	shape2_	black_	counterclockwise_	loc4_	notarget_	correct_or_press	block2_disappearance_shape2_black_counterclockwise_notarget_correct_or_pressloc4_
41	1	2	118	2	1	2	0	2	0	1	212120102	block2_	disappearance_	shape2_	black_	counterclockwise_	loc2_	notarget_	correct_or_press	block2_disappearance_shape2_black_counterclockwise_notarget_correct_or_pressloc2_
42	1	2	108	1	1	1	0	4	0	1	211110104	block2_	disappearance_	shape1_	black_	clockwise_	loc4_	notarget_	correct_or_press	block2_disappearance_shape1_black_clockwise_notarget_correct_or_pressloc4_
43	1	2	106	1	1	1	0	2	0	1	211110102	block2_	disappearance_	shape1_	black_	clockwise_	loc2_	notarget_	correct_or_press	block2_disappearance_shape1_black_clockwise_notarget_correct_or_pressloc2_
44	1	2	123	2	1	1	0	3	0	1	212110103	block2_	disappearance_	shape2_	black_	clockwise_	loc3_	notarget_	correct_or_press	block2_disappearance_shape2_black_clockwise_notarget_correct_or_pressloc3_
45	1	2	126	2	2	2	0	2	0	1	212220102	block2_	disappearance_	shape2_	white_	counterclockwise_	loc2_	notarget_	correct_or_press	block2_disappearance_shape2_white_counterclockwise_notarget_correct_or_pressloc2_
46	1	2	119	2	1	2	1	3	11	1	212121103	block2_	disappearance_	shape2_	black_	counterclockwise_	loc3_	istarget_	correct_or_press	block2_disappearance_shape2_black_counterclockwise_istarget_correct_or_pressloc3_
47	1	2	111	1	2	2	0	3	0	1	211220103	block2_	disappearance_	shape1_	white_	counterclockwise_	loc3_	notarget_	correct_or_press	block2_disappearance_shape1_white_counterclockwise_notarget_correct_or_pressloc3_
48	1	2	119	2	1	2	0	3	0	1	212120103	block2_	disappearance_	shape2_	black_	counterclockwise_	loc3_	notarget_	correct_or_press	block2_disappearance_shape2_black_counterclockwise_notarget_correct_or_pressloc3_
49	1	2	101	1	1	2	0	1	0	1	211120101	block2_	disappearance_	shape1_	black_	counterclockwise_	loc1_	notarget_	correct_or_press	block2_disappearance_shape1_black_counterclockwise_notarget_correct_or_pressloc1_
50	1	2	116	1	2	1	0	4	0	1	211210104	block2_	disappearance_	shape1_	white_	clockwise_	loc4_	notarget_	correct_or_press	block2_disappearance_shape1_white_clockwise_notarget_correct_or_pressloc4_
51	1	2	101	1	1	2	0	1	0	1	211120101	block2_	disappearance_	shape1_	black_	counterclockwise_	loc1_	notarget_	correct_or_press	block2_disappearance_shape1_black_counterclockwise_notarget_correct_or_pressloc1_
52	1	2	131	2	2	1	0	3	0	1	212210103	block2_	disappearance_	shape2_	white_	clockwise_	loc3_	notarget_	correct_or_press	block2_disappearance_shape2_white_clockwise_notarget_correct_or_pressloc3_
53	1	2	124	2	1	1	1	4	16	1	212111104	block2_	disappearance_	shape2_	black_	clockwise_	loc4_	istarget_	correct_or_press	block2_disappearance_shape2_black_clockwise_istarget_correct_or_pressloc4_
54	1	2	122	2	1	1	1	2	15	1	212111102	block2_	disappearance_	shape2_	black_	clockwise_	loc2_	istarget_	correct_or_press	block2_disappearance_shape2_black_clockwise_istarget_correct_or_pressloc2_
55	1	2	120	2	1	2	0	4	0	1	212120104	block2_	disappearance_	shape2_	black_	counterclockwise_	loc4_	notarget_	correct_or_press	block2_disappearance_shape2_black_counterclockwise_notarget_correct_or_pressloc4_
56	1	2	130	2	2	1	0	2	0	1	212210102	block2_	disappearance_	shape2_	white_	clockwise_	loc2_	notarget_	correct_or_press	block2_disappearance_shape2_white_clockwise_notarget_correct_or_pressloc2_
57	1	2	121	2	1	1	0	1	0	1	212110101	block2_	disappearance_	shape2_	black_	clockwise_	loc1_	notarget_	correct_or_press	block2_disappearance_shape2_black_clockwise_notarget_correct_or_pressloc1_
58	1	2	107	1	1	1	0	3	0	1	211110103	block2_	disappearance_	shape1_	black_	clockwise_	loc3_	notarget_	correct_or_press	block2_disappearance_shape1_black_clockwise_notarget_correct_or_pressloc3_
59	1	2	117	2	1	2	1	1	18	1	212121101	block2_	disappearance_	shape2_	black_	counterclockwise_	loc1_	istarget_	correct_or_press	block2_disappearance_shape2_black_counterclockwise_istarget_correct_or_pressloc1_
60	1	2	122	2	1	1	0	2	0	1	212110102	block2_	disappearance_	shape2_	black_	clockwise_	loc2_	notarget_	correct_or_press	block2_disappearance_shape2_black_clockwise_notarget_correct_or_pressloc2_
61	1	2	109	1	2	2	0	1	0	1	211220101	block2_	disappearance_	shape1_	white_	counterclockwise_	loc1_	notarget_	correct_or_press	block2_disappearance_shape1_white_counterclockwise_notarget_correct_or_pressloc1_
62	1	2	121	2	1	1	0	1	0	1	212110101	block2_	disappearance_	shape2_	black_	clockwise_	loc1_	notarget_	correct_or_press	block2_disappearance_shape2_black_clockwise_notarget_correct_or_pressloc1_
63	1	2	117	2	1	2	0	1	0	1	212120101	block2_	disappearance_	shape2_	black_	counterclockwise_	loc1_	notarget_	correct_or_press	block2_disappearance_shape2_black_counterclockwise_notarget_correct_or_pressloc1_
64	1	2	112	1	2	2	1	4	16	1	211221104	block2_	disappearance_	shape1_	white_	counterclockwise_	loc4_	istarget_	correct_or_press	block2_disappearance_shape1_white_counterclockwise_istarget_correct_or_pressloc4_
65	1	2	102	1	1	2	0	2	0	1	211120102	block2_	disappearance_	shape1_	black_	counterclockwise_	loc2_	notarget_	correct_or_press	block2_disappearance_shape1_black_counterclockwise_notarget_correct_or_pressloc2_
66	1	2	104	1	1	2	0	4	0	1	211120104	block2_	disappearance_	shape1_	black_	counterclockwise_	loc4_	notarget_	correct_or_press	block2_disappearance_shape1_black_counterclockwise_notarget_correct_or_pressloc4_
67	1	2	131	2	2	1	1	3	15	1	212211103	block2_	disappearance_	shape2_	white_	clockwise_	loc3_	istarget_	correct_or_press	block2_disappearance_shape2_white_clockwise_istarget_correct_or_pressloc3_
68	1	2	127	2	2	2	0	3	0	1	212220103	block2_	disappearance_	shape2_	white_	counterclockwise_	loc3_	notarget_	correct_or_press	block2_disappearance_shape2_white_counterclockwise_notarget_correct_or_pressloc3_
69	1	2	106	1	1	1	1	2	19	1	211111102	block2_	disappearance_	shape1_	black_	clockwise_	loc2_	istarget_	correct_or_press	block2_disappearance_shape1_black_clockwise_istarget_correct_or_pressloc2_
70	1	2	128	2	2	2	0	4	0	1	212220104	block2_	disappearance_	shape2_	white_	counterclockwise_	loc4_	notarget_	correct_or_press	block2_disappearance_shape2_white_counterclockwise_notarget_correct_or_pressloc4_
71	1	2	108	1	1	1	0	4	0	1	211110104	block2_	disappearance_	shape1_	black_	clockwise_	loc4_	notarget_	correct_or_press	block2_disappearance_shape1_black_clockwise_notarget_correct_or_pressloc4_
72	1	2	104	1	1	2	0	4	0	1	211120104	block2_	disappearance_	shape1_	black_	counterclockwise_	loc4_	notarget_	correct_or_press	block2_disappearance_shape1_black_counterclockwise_notarget_correct_or_pressloc4_
73	1	2	129	2	2	1	0	1	0	1	212210101	block2_	disappearance_	shape2_	white_	clockwise_	loc1_	notarget_	correct_or_press	block2_disappearance_shape2_white_clockwise_notarget_correct_or_pressloc1_
74	1	2	130	2	2	1	0	2	0	1	212210102	block2_	disappearance_	shape2_	white_	clockwise_	loc2_	notarget_	correct_or_press	block2_disappearance_shape2_white_clockwise_notarget_correct_or_pressloc2_
75	1	2	112	1	2	2	0	4	0	1	211220104	block2_	disappearance_	shape1_	white_	counterclockwise_	loc4_	notarget_	correct_or_press	block2_disappearance_shape1_white_counterclockwise_notarget_correct_or_pressloc4_
76	1	2	105	1	1	1	0	1	0	1	211110101	block2_	disappearance_	shape1_	black_	clockwise_	loc1_	notarget_	correct_or_press	block2_disappearance_shape1_black_clockwise_notarget_correct_or_pressloc1_
77	1	2	110	1	2	2	0	2	0	1	211220102	block2_	disappearance_	shape1_	white_	counterclockwise_	loc2_	notarget_	correct_or_press	block2_disappearance_shape1_white_counterclockwise_notarget_correct_or_pressloc2_
78	1	2	123	2	1	1	0	3	0	1	212110103	block2_	disappearance_	shape2_	black_	clockwise_	loc3_	notarget_	correct_or_press	block2_disappearance_shape2_black_clockwise_notarget_correct_or_pressloc3_
79	1	2	103	1	1	2	0	3	0	1	211120103	block2_	disappearance_	shape1_	black_	counterclockwise_	loc3_	notarget_	correct_or_press	block2_disappearance_shape1_black_counterclockwise_notarget_correct_or_pressloc3_
80	1	2	116	1	2	1	0	4	0	1	211210104	block2_	disappearance_	shape1_	white_	clockwise_	loc4_	notarget_	correct_or_press	block2_disappearance_shape1_white_clockwise_notarget_correct_or_pressloc4_
81	1	2	118	2	1	2	0	2	0	1	212120102	block2_	disappearance_	shape2_	black_	counterclockwise_	loc2_	notarget_	correct_or_press	block2_disappearance_shape2_black_counterclockwise_notarget_correct_or_pressloc2_
82	1	2	111	1	2	2	0	3	0	1	211220103	block2_	disappearance_	shape1_	white_	counterclockwise_	loc3_	notarget_	correct_or_press	block2_disappearance_shape1_white_counterclockwise_notarget_correct_or_pressloc3_
83	1	2	116	1	2	1	0	4	0	1	211210104	block2_	disappearance_	shape1_	white_	clockwise_	loc4_	notarget_	correct_or_press	block2_disappearance_shape1_white_clockwise_notarget_correct_or_pressloc4_
84	1	2	113	1	2	1	0	1	0	1	211210101	block2_	disappearance_	shape1_	white_	clockwise_	loc1_	notarget_	correct_or_press	block2_disappearance_shape1_white_clockwise_notarget_correct_or_pressloc1_
85	1	2	127	2	2	2	0	3	0	1	212220103	block2_	disappearance_	shape2_	white_	counterclockwise_	loc3_	notarget_	correct_or_press	block2_disappearance_shape2_white_counterclockwise_notarget_correct_or_pressloc3_
86	1	2	123	2	1	1	0	3	0	1	212110103	block2_	disappearance_	shape2_	black_	clockwise_	loc3_	notarget_	correct_or_press	block2_disappearance_shape2_black_clockwise_notarget_correct_or_pressloc3_
87	1	2	117	2	1	2	0	1	0	1	212120101	block2_	disappearance_	shape2_	black_	counterclockwise_	loc1_	notarget_	correct_or_press	block2_disappearance_shape2_black_counterclockwise_notarget_correct_or_pressloc1_
88	1	2	124	2	1	1	0	4	0	1	212110104	block2_	disappearance_	shape2_	black_	clockwise_	loc4_	notarget_	correct_or_press	block2_disappearance_shape2_black_clockwise_notarget_correct_or_pressloc4_
89	1	2	129	2	2	1	0	1	0	1	212210101	block2_	disappearance_	shape2_	white_	clockwise_	loc1_	notarget_	correct_or_press	block2_disappearance_shape2_white_clockwise_notarget_correct_or_pressloc1_
90	1	2	113	1	2	1	0	1	0	1	211210101	block2_	disappearance_	shape1_	white_	clockwise_	loc1_	notarget_	correct_or_press	block2_disappearance_shape1_white_clockwise_notarget_correct_or_pressloc1_
91	1	2	114	1	2	1	0	2	0	1	211210102	block2_	disappearance_	shape1_	white_	clockwise_	loc2_	notarget_	correct_or_press	block2_disappearance_shape1_white_clockwise_notarget_correct_or_pressloc2_
92	1	2	104	1	1	2	0	4	0	1	211120104	block2_	disappearance_	shape1_	black_	counterclockwise_	loc4_	notarget_	correct_or_press	block2_disappearance_shape1_black_counterclockwise_notarget_correct_or_pressloc4_
93	1	2	107	1	1	1	0	3	0	1	211110103	block2_	disappearance_	shape1_	black_	clockwise_	loc3_	notarget_	correct_or_press	block2_disappearance_shape1_black_clockwise_notarget_correct_or_pressloc3_
94	1	2	115	1	2	1	0	3	0	1	211210103	block2_	disappearance_	shape1_	white_	clockwise_	loc3_	notarget_	correct_or_press	block2_disappearance_shape1_white_clockwise_notarget_correct_or_pressloc3_
95	1	2	131	2	2	1	0	3	0	1	212210103	block2_	disappearance_	shape2_	white_	clockwise_	loc3_	notarget_	correct_or_press	block2_disappearance_shape2_white_clockwise_notarget_correct_or_pressloc3_
96	1	2	106	1	1	1	0	2	0	1	211110102	block2_	disappearance_	shape1_	black_	clockwise_	loc2_	notarget_	correct_or_press	block2_disappearance_shape1_black_clockwise_notarget_correct_or_pressloc2_
97	1	2	126	2	2	2	0	2	0	1	212220102	block2_	disappearance_	shape2_	white_	counterclockwise_	loc2_	notarget_	correct_or_press	block2_disappearance_shape2_white_counterclockwise_notarget_correct_or_pressloc2_
98	1	2	102	1	1	2	0	2	0	1	211120102	block2_	disappearance_	shape1_	black_	counterclockwise_	loc2_	notarget_	correct_or_press	block2_disappearance_shape1_black_counterclockwise_notarget_correct_or_pressloc2_
99	1	2	127	2	2	2	0	3	0	1	212220103	block2_	disappearance_	shape2_	white_	counterclockwise_	loc3_	notarget_	correct_or_press	block2_disappearance_shape2_white_counterclockwise_notarget_correct_or_pressloc3_
100	1	2	103	1	1	2	0	3	0	1	211120103	block2_	disappearance_	shape1_	black_	counterclockwise_	loc3_	notarget_	correct_or_press	block2_disappearance_shape1_black_counterclockwise_notarget_correct_or_pressloc3_
101	1	2	118	2	1	2	0	2	0	1	212120102	block2_	disappearance_	shape2_	black_	counterclockwise_	loc2_	notarget_	correct_or_press	block2_disappearance_shape2_black_counterclockwise_notarget_correct_or_pressloc2_
102	1	2	117	2	1	2	0	1	0	1	212120101	block2_	disappearance_	shape2_	black_	counterclockwise_	loc1_	notarget_	correct_or_press	block2_disappearance_shape2_black_counterclockwise_notarget_correct_or_pressloc1_
103	1	2	120	2	1	2	0	4	0	1	212120104	block2_	disappearance_	shape2_	black_	counterclockwise_	loc4_	notarget_	correct_or_press	block2_disappearance_shape2_black_counterclockwise_notarget_correct_or_pressloc4_
104	1	2	105	1	1	1	0	1	0	1	211110101	block2_	disappearance_	shape1_	black_	clockwise_	loc1_	notarget_	correct_or_press	block2_disappearance_shape1_black_clockwise_notarget_correct_or_pressloc1_
105	1	2	119	2	1	2	0	3	0	1	212120103	block2_	disappearance_	shape2_	black_	counterclockwise_	loc3_	notarget_	correct_or_press	block2_disappearance_shape2_black_counterclockwise_notarget_correct_or_pressloc3_
106	1	2	117	2	1	2	1	1	12	1	212121101	block2_	disappearance_	shape2_	black_	counterclockwise_	loc1_	istarget_	correct_or_press	block2_disappearance_shape2_black_counterclockwise_istarget_correct_or_pressloc1_
107	1	2	127	2	2	2	1	3	9	1	212221103	block2_	disappearance_	shape2_	white_	counterclockwise_	loc3_	istarget_	correct_or_press	block2_disappearance_shape2_white_counterclockwise_istarget_correct_or_pressloc3_
108	1	2	124	2	1	1	0	4	0	1	212110104	block2_	disappearance_	shape2_	black_	clockwise_	loc4_	notarget_	correct_or_press	block2_disappearance_shape2_black_clockwise_notarget_correct_or_pressloc4_
109	1	2	110	1	2	2	0	2	0	1	211220102	block2_	disappearance_	shape1_	white_	counterclockwise_	loc2_	notarget_	correct_or_press	block2_disappearance_shape1_white_counterclockwise_notarget_correct_or_pressloc2_
110	1	2	101	1	1	2	1	1	21	1	211121101	block2_	disappearance_	shape1_	black_	counterclockwise_	loc1_	istarget_	correct_or_press	block2_disappearance_shape1_black_counterclockwise_istarget_correct_or_pressloc1_
111	1	2	128	2	2	2	0	4	0	1	212220104	block2_	disappearance_	shape2_	white_	counterclockwise_	loc4_	notarget_	correct_or_press	block2_disappearance_shape2_white_counterclockwise_notarget_correct_or_pressloc4_
112	2	2	228	2	1	0	2	28	2	0	222102028	block2_	flicker_	shape2_	black_	counterclockwise_	loc28_	padding_	incorrect_or_nopress	block2_flicker_shape2_black_counterclockwise_padding_incorrect_or_nopressloc28_
113	2	2	213	2	1	0	0	13	0	0	222100013	block2_	flicker_	shape2_	black_	counterclockwise_	loc13_	notarget_	incorrect_or_nopress	block2_flicker_shape2_black_counterclockwise_notarget_incorrect_or_nopressloc13_
114	2	2	213	1	1	0	0	13	0	0	221100013	block2_	flicker_	shape1_	black_	counterclockwise_	loc13_	notarget_	incorrect_or_nopress	block2_flicker_shape1_black_counterclockwise_notarget_incorrect_or_nopressloc13_
115	2	2	209	2	1	0	0	9	0	0	222100009	block2_	flicker_	shape2_	black_	counterclockwise_	loc9_	notarget_	incorrect_or_nopress	block2_flicker_shape2_black_counterclockwise_notarget_incorrect_or_nopressloc9_
116	2	2	206	2	2	0	0	6	0	0	222200006	block2_	flicker_	shape2_	white_	counterclockwise_	loc6_	notarget_	incorrect_or_nopress	block2_flicker_shape2_white_counterclockwise_notarget_incorrect_or_nopressloc6_
117	2	2	254	1	2	0	0	54	0	0	221200054	block2_	flicker_	shape1_	white_	counterclockwise_	loc54_	notarget_	incorrect_or_nopress	block2_flicker_shape1_white_counterclockwise_notarget_incorrect_or_nopressloc54_
118	2	2	217	2	1	0	0	17	0	0	222100017	block2_	flicker_	shape2_	black_	counterclockwise_	loc17_	notarget_	incorrect_or_nopress	block2_flicker_shape2_black_counterclockwise_notarget_incorrect_or_nopressloc17_
119	2	2	237	2	2	0	0	37	0	0	222200037	block2_	flicker_	shape2_	white_	counterclockwise_	loc37_	notarget_	incorrect_or_nopress	block2_flicker_shape2_white_counterclockwise_notarget_incorrect_or_nopressloc37_
120	2	2	232	2	1	0	0	32	0	0	222100032	block2_	flicker_	shape2_	black_	counterclockwise_	loc32_	notarget_	incorrect_or_nopress	block2_flicker_shape2_black_counterclockwise_notarget_incorrect_or_nopressloc32_
121	2	2	252	1	2	0	0	52	0	0	221200052	block2_	flicker_	shape1_	white_	counterclockwise_	loc52_	notarget_	incorrect_or_nopress	block2_flicker_shape1_white_counterclockwise_notarget_incorrect_or_nopressloc52_
122	2	2	256	1	2	0	0	56	0	0	221200056	block2_	flicker_	shape1_	white_	counterclockwise_	loc56_	notarget_	incorrect_or_nopress	block2_flicker_shape1_white_counterclockwise_notarget_incorrect_or_nopressloc56_
123	2	2	225	1	2	0	0	25	0	0	221200025	block2_	flicker_	shape1_	white_	counterclockwise_	loc25_	notarget_	incorrect_or_nopress	block2_flicker_shape1_white_counterclockwise_notarget_incorrect_or_nopressloc25_
124	2	2	263	1	1	0	0	63	0	0	221100063	block2_	flicker_	shape1_	black_	counterclockwise_	loc63_	notarget_	incorrect_or_nopress	block2_flicker_shape1_black_counterclockwise_notarget_incorrect_or_nopressloc63_
125	2	2	222	2	2	0	0	22	0	0	222200022	block2_	flicker_	shape2_	white_	counterclockwise_	loc22_	notarget_	incorrect_or_nopress	block2_flicker_shape2_white_counterclockwise_notarget_incorrect_or_nopressloc22_
126	2	2	230	1	2	0	0	30	0	0	221200030	block2_	flicker_	shape1_	white_	counterclockwise_	loc30_	notarget_	incorrect_or_nopress	block2_flicker_shape1_white_counterclockwise_notarget_incorrect_or_nopressloc30_
127	2	2	201	1	1	0	0	1	0	0	221100001	block2_	flicker_	shape1_	black_	counterclockwise_	loc1_	notarget_	incorrect_or_nopress	block2_flicker_shape1_black_counterclockwise_notarget_incorrect_or_nopressloc1_
128	2	2	224	2	2	0	0	24	0	0	222200024	block2_	flicker_	shape2_	white_	counterclockwise_	loc24_	notarget_	incorrect_or_nopress	block2_flicker_shape2_white_counterclockwise_notarget_incorrect_or_nopressloc24_
129	2	2	205	1	1	0	0	5	0	0	221100005	block2_	flicker_	shape1_	black_	counterclockwise_	loc5_	notarget_	incorrect_or_nopress	block2_flicker_shape1_black_counterclockwise_notarget_incorrect_or_nopressloc5_
130	2	2	240	1	2	0	0	40	0	0	221200040	block2_	flicker_	shape1_	white_	counterclockwise_	loc40_	notarget_	incorrect_or_nopress	block2_flicker_shape1_white_counterclockwise_notarget_incorrect_or_nopressloc40_
131	2	2	221	2	1	0	0	21	0	0	222100021	block2_	flicker_	shape2_	black_	counterclockwise_	loc21_	notarget_	incorrect_or_nopress	block2_flicker_shape2_black_counterclockwise_notarget_incorrect_or_nopressloc21_
132	2	2	242	1	1	0	0	42	0	0	221100042	block2_	flicker_	shape1_	black_	counterclockwise_	loc42_	notarget_	incorrect_or_nopress	block2_flicker_shape1_black_counterclockwise_notarget_incorrect_or_nopressloc42_
133	2	2	235	2	1	0	0	35	0	0	222100035	block2_	flicker_	shape2_	black_	counterclockwise_	loc35_	notarget_	incorrect_or_nopress	block2_flicker_shape2_black_counterclockwise_notarget_incorrect_or_nopressloc35_
134	2	2	251	1	2	0	0	51	0	0	221200051	block2_	flicker_	shape1_	white_	counterclockwise_	loc51_	notarget_	incorrect_or_nopress	block2_flicker_shape1_white_counterclockwise_notarget_incorrect_or_nopressloc51_
135	2	2	259	1	1	0	0	59	0	0	221100059	block2_	flicker_	shape1_	black_	counterclockwise_	loc59_	notarget_	incorrect_or_nopress	block2_flicker_shape1_black_counterclockwise_notarget_incorrect_or_nopressloc59_
136	2	2	216	2	1	0	0	16	0	0	222100016	block2_	flicker_	shape2_	black_	counterclockwise_	loc16_	notarget_	incorrect_or_nopress	block2_flicker_shape2_black_counterclockwise_notarget_incorrect_or_nopressloc16_
137	2	2	247	1	2	0	0	47	0	0	221200047	block2_	flicker_	shape1_	white_	counterclockwise_	loc47_	notarget_	incorrect_or_nopress	block2_flicker_shape1_white_counterclockwise_notarget_incorrect_or_nopressloc47_
138	2	2	234	1	1	0	0	34	0	0	221100034	block2_	flicker_	shape1_	black_	counterclockwise_	loc34_	notarget_	incorrect_or_nopress	block2_flicker_shape1_black_counterclockwise_notarget_incorrect_or_nopressloc34_
139	2	2	215	1	2	0	0	15	0	0	221200015	block2_	flicker_	shape1_	white_	counterclockwise_	loc15_	notarget_	incorrect_or_nopress	block2_flicker_shape1_white_counterclockwise_notarget_incorrect_or_nopressloc15_
140	2	2	223	1	1	0	0	23	0	0	221100023	block2_	flicker_	shape1_	black_	counterclockwise_	loc23_	notarget_	incorrect_or_nopress	block2_flicker_shape1_black_counterclockwise_notarget_incorrect_or_nopressloc23_
141	2	2	258	1	2	0	0	58	0	0	221200058	block2_	flicker_	shape1_	white_	counterclockwise_	loc58_	notarget_	incorrect_or_nopress	block2_flicker_shape1_white_counterclockwise_notarget_incorrect_or_nopressloc58_
142	2	2	256	1	1	0	0	56	0	0	221100056	block2_	flicker_	shape1_	black_	counterclockwise_	loc56_	notarget_	incorrect_or_nopress	block2_flicker_shape1_black_counterclockwise_notarget_incorrect_or_nopressloc56_
143	2	2	217	1	2	0	0	17	0	0	221200017	block2_	flicker_	shape1_	white_	counterclockwise_	loc17_	notarget_	incorrect_or_nopress	block2_flicker_shape1_white_counterclockwise_notarget_incorrect_or_nopressloc17_
144	2	2	249	2	1	0	0	49	0	0	222100049	block2_	flicker_	shape2_	black_	counterclockwise_	loc49_	notarget_	incorrect_or_nopress	block2_flicker_shape2_black_counterclockwise_notarget_incorrect_or_nopressloc49_
145	2	2	241	1	2	0	0	41	0	0	221200041	block2_	flicker_	shape1_	white_	counterclockwise_	loc41_	notarget_	incorrect_or_nopress	block2_flicker_shape1_white_counterclockwise_notarget_incorrect_or_nopressloc41_
146	2	2	260	2	1	0	0	60	0	0	222100060	block2_	flicker_	shape2_	black_	counterclockwise_	loc60_	notarget_	incorrect_or_nopress	block2_flicker_shape2_black_counterclockwise_notarget_incorrect_or_nopressloc60_
147	2	2	237	1	2	0	0	37	0	0	221200037	block2_	flicker_	shape1_	white_	counterclockwise_	loc37_	notarget_	incorrect_or_nopress	block2_flicker_shape1_white_counterclockwise_notarget_incorrect_or_nopressloc37_
148	2	2	229	2	2	0	0	29	0	0	222200029	block2_	flicker_	shape2_	white_	counterclockwise_	loc29_	notarget_	incorrect_or_nopress	block2_flicker_shape2_white_counterclockwise_notarget_incorrect_or_nopressloc29_
149	2	2	248	2	2	0	0	48	0	0	222200048	block2_	flicker_	shape2_	white_	counterclockwise_	loc48_	notarget_	incorrect_or_nopress	block2_flicker_shape2_white_counterclockwise_notarget_incorrect_or_nopressloc48_
150	2	2	258	1	1	0	0	58	0	0	221100058	block2_	flicker_	shape1_	black_	counterclockwise_	loc58_	notarget_	incorrect_or_nopress	block2_flicker_shape1_black_counterclockwise_notarget_incorrect_or_nopressloc58_
151	2	2	240	1	1	0	0	40	0	0	221100040	block2_	flicker_	shape1_	black_	counterclockwise_	loc40_	notarget_	incorrect_or_nopress	block2_flicker_shape1_black_counterclockwise_notarget_incorrect_or_nopressloc40_
152	2	2	235	1	2	0	0	35	0	0	221200035	block2_	flicker_	shape1_	white_	counterclockwise_	loc35_	notarget_	incorrect_or_nopress	block2_flicker_shape1_white_counterclockwise_notarget_incorrect_or_nopressloc35_
153	2	2	239	1	1	0	0	39	0	0	221100039	block2_	flicker_	shape1_	black_	counterclockwise_	loc39_	notarget_	incorrect_or_nopress	block2_flicker_shape1_black_counterclockwise_notarget_incorrect_or_nopressloc39_
154	2	2	244	1	1	0	0	44	0	0	221100044	block2_	flicker_	shape1_	black_	counterclockwise_	loc44_	notarget_	incorrect_or_nopress	block2_flicker_shape1_black_counterclockwise_notarget_incorrect_or_nopressloc44_
155	2	2	222	2	1	0	0	22	0	0	222100022	block2_	flicker_	shape2_	black_	counterclockwise_	loc22_	notarget_	incorrect_or_nopress	block2_flicker_shape2_black_counterclockwise_notarget_incorrect_or_nopressloc22_
156	2	2	258	2	1	0	0	58	0	0	222100058	block2_	flicker_	shape2_	black_	counterclockwise_	loc58_	notarget_	incorrect_or_nopress	block2_flicker_shape2_black_counterclockwise_notarget_incorrect_or_nopressloc58_
157	2	2	230	2	1	0	0	30	0	0	222100030	block2_	flicker_	shape2_	black_	counterclockwise_	loc30_	notarget_	incorrect_or_nopress	block2_flicker_shape2_black_counterclockwise_notarget_incorrect_or_nopressloc30_
158	2	2	212	1	1	0	0	12	0	0	221100012	block2_	flicker_	shape1_	black_	counterclockwise_	loc12_	notarget_	incorrect_or_nopress	block2_flicker_shape1_black_counterclockwise_notarget_incorrect_or_nopressloc12_
159	2	2	248	1	1	0	0	48	0	0	221100048	block2_	flicker_	shape1_	black_	counterclockwise_	loc48_	notarget_	incorrect_or_nopress	block2_flicker_shape1_black_counterclockwise_notarget_incorrect_or_nopressloc48_
160	2	2	227	1	2	0	0	27	0	0	221200027	block2_	flicker_	shape1_	white_	counterclockwise_	loc27_	notarget_	incorrect_or_nopress	block2_flicker_shape1_white_counterclockwise_notarget_incorrect_or_nopressloc27_
161	2	2	233	1	2	0	0	33	0	0	221200033	block2_	flicker_	shape1_	white_	counterclockwise_	loc33_	notarget_	incorrect_or_nopress	block2_flicker_shape1_white_counterclockwise_notarget_incorrect_or_nopressloc33_
162	2	2	239	1	2	0	0	39	0	0	221200039	block2_	flicker_	shape1_	white_	counterclockwise_	loc39_	notarget_	incorrect_or_nopress	block2_flicker_shape1_white_counterclockwise_notarget_incorrect_or_nopressloc39_
163	2	2	259	1	2	0	0	59	0	0	221200059	block2_	flicker_	shape1_	white_	counterclockwise_	loc59_	notarget_	incorrect_or_nopress	block2_flicker_shape1_white_counterclockwise_notarget_incorrect_or_nopressloc59_
164	2	2	238	1	1	0	0	38	0	0	221100038	block2_	flicker_	shape1_	black_	counterclockwise_	loc38_	notarget_	incorrect_or_nopress	block2_flicker_shape1_black_counterclockwise_notarget_incorrect_or_nopressloc38_
165	2	2	231	2	2	0	0	31	0	0	222200031	block2_	flicker_	shape2_	white_	counterclockwise_	loc31_	notarget_	incorrect_or_nopress	block2_flicker_shape2_white_counterclockwise_notarget_incorrect_or_nopressloc31_
166	2	2	215	1	1	0	0	15	0	0	221100015	block2_	flicker_	shape1_	black_	counterclockwise_	loc15_	notarget_	incorrect_or_nopress	block2_flicker_shape1_black_counterclockwise_notarget_incorrect_or_nopressloc15_
167	2	2	234	1	2	0	0	34	0	0	221200034	block2_	flicker_	shape1_	white_	counterclockwise_	loc34_	notarget_	incorrect_or_nopress	block2_flicker_shape1_white_counterclockwise_notarget_incorrect_or_nopressloc34_
168	2	2	211	2	2	0	0	11	0	0	222200011	block2_	flicker_	shape2_	white_	counterclockwise_	loc11_	notarget_	incorrect_or_nopress	block2_flicker_shape2_white_counterclockwise_notarget_incorrect_or_nopressloc11_
169	2	2	251	1	1	0	0	51	0	0	221100051	block2_	flicker_	shape1_	black_	counterclockwise_	loc51_	notarget_	incorrect_or_nopress	block2_flicker_shape1_black_counterclockwise_notarget_incorrect_or_nopressloc51_
170	2	2	237	1	1	0	0	37	0	0	221100037	block2_	flicker_	shape1_	black_	counterclockwise_	loc37_	notarget_	incorrect_or_nopress	block2_flicker_shape1_black_counterclockwise_notarget_incorrect_or_nopressloc37_
171	2	2	210	2	2	0	0	10	0	0	222200010	block2_	flicker_	shape2_	white_	counterclockwise_	loc10_	notarget_	incorrect_or_nopress	block2_flicker_shape2_white_counterclockwise_notarget_incorrect_or_nopressloc10_
172	2	2	234	2	2	0	0	34	0	0	222200034	block2_	flicker_	shape2_	white_	counterclockwise_	loc34_	notarget_	incorrect_or_nopress	block2_flicker_shape2_white_counterclockwise_notarget_incorrect_or_nopressloc34_
173	2	2	236	2	1	0	0	36	0	0	222100036	block2_	flicker_	shape2_	black_	counterclockwise_	loc36_	notarget_	incorrect_or_nopress	block2_flicker_shape2_black_counterclockwise_notarget_incorrect_or_nopressloc36_
174	2	2	243	2	1	0	0	43	0	0	222100043	block2_	flicker_	shape2_	black_	counterclockwise_	loc43_	notarget_	incorrect_or_nopress	block2_flicker_shape2_black_counterclockwise_notarget_incorrect_or_nopressloc43_
175	2	2	223	1	2	0	0	23	0	0	221200023	block2_	flicker_	shape1_	white_	counterclockwise_	loc23_	notarget_	incorrect_or_nopress	block2_flicker_shape1_white_counterclockwise_notarget_incorrect_or_nopressloc23_
176	2	2	247	2	1	0	0	47	0	0	222100047	block2_	flicker_	shape2_	black_	counterclockwise_	loc47_	notarget_	incorrect_or_nopress	block2_flicker_shape2_black_counterclockwise_notarget_incorrect_or_nopressloc47_
177	2	2	204	1	2	0	0	4	0	0	221200004	block2_	flicker_	shape1_	white_	counterclockwise_	loc4_	notarget_	incorrect_or_nopress	block2_flicker_shape1_white_counterclockwise_notarget_incorrect_or_nopressloc4_
178	2	2	215	2	1	0	0	15	0	0	222100015	block2_	flicker_	shape2_	black_	counterclockwise_	loc15_	notarget_	incorrect_or_nopress	block2_flicker_shape2_black_counterclockwise_notarget_incorrect_or_nopressloc15_
179	2	2	238	1	2	0	0	38	0	0	221200038	block2_	flicker_	shape1_	white_	counterclockwise_	loc38_	notarget_	incorrect_or_nopress	block2_flicker_shape1_white_counterclockwise_notarget_incorrect_or_nopressloc38_
180	2	2	248	2	1	0	0	48	0	0	222100048	block2_	flicker_	shape2_	black_	counterclockwise_	loc48_	notarget_	incorrect_or_nopress	block2_flicker_shape2_black_counterclockwise_notarget_incorrect_or_nopressloc48_
181	2	2	238	2	2	0	0	38	0	0	222200038	block2_	flicker_	shape2_	white_	counterclockwise_	loc38_	notarget_	incorrect_or_nopress	block2_flicker_shape2_white_counterclockwise_notarget_incorrect_or_nopressloc38_
182	2	2	247	1	1	0	0	47	0	0	221100047	block2_	flicker_	shape1_	black_	counterclockwise_	loc47_	notarget_	incorrect_or_nopress	block2_flicker_shape1_black_counterclockwise_notarget_incorrect_or_nopressloc47_
183	2	2	233	1	1	0	0	33	0	0	221100033	block2_	flicker_	shape1_	black_	counterclockwise_	loc33_	notarget_	incorrect_or_nopress	block2_flicker_shape1_black_counterclockwise_notarget_incorrect_or_nopressloc33_
184	2	2	228	2	1	0	0	28	0	0	222100028	block2_	flicker_	shape2_	black_	counterclockwise_	loc28_	notarget_	incorrect_or_nopress	block2_flicker_shape2_black_counterclockwise_notarget_incorrect_or_nopressloc28_
185	2	2	243	1	1	0	0	43	0	0	221100043	block2_	flicker_	shape1_	black_	counterclockwise_	loc43_	notarget_	incorrect_or_nopress	block2_flicker_shape1_black_counterclockwise_notarget_incorrect_or_nopressloc43_
186	2	2	217	2	2	0	0	17	0	0	222200017	block2_	flicker_	shape2_	white_	counterclockwise_	loc17_	notarget_	incorrect_or_nopress	block2_flicker_shape2_white_counterclockwise_notarget_incorrect_or_nopressloc17_
187	2	2	203	1	2	0	0	3	0	0	221200003	block2_	flicker_	shape1_	white_	counterclockwise_	loc3_	notarget_	incorrect_or_nopress	block2_flicker_shape1_white_counterclockwise_notarget_incorrect_or_nopressloc3_
188	2	2	215	2	2	0	0	15	0	0	222200015	block2_	flicker_	shape2_	white_	counterclockwise_	loc15_	notarget_	incorrect_or_nopress	block2_flicker_shape2_white_counterclockwise_notarget_incorrect_or_nopressloc15_
189	2	2	204	2	1	0	0	4	0	0	222100004	block2_	flicker_	shape2_	black_	counterclockwise_	loc4_	notarget_	incorrect_or_nopress	block2_flicker_shape2_black_counterclockwise_notarget_incorrect_or_nopressloc4_
190	2	2	221	1	2	0	0	21	0	0	221200021	block2_	flicker_	shape1_	white_	counterclockwise_	loc21_	notarget_	incorrect_or_nopress	block2_flicker_shape1_white_counterclockwise_notarget_incorrect_or_nopressloc21_
191	2	2	204	1	1	0	0	4	0	0	221100004	block2_	flicker_	shape1_	black_	counterclockwise_	loc4_	notarget_	incorrect_or_nopress	block2_flicker_shape1_black_counterclockwise_notarget_incorrect_or_nopressloc4_
192	2	2	241	2	1	0	0	41	0	0	222100041	block2_	flicker_	shape2_	black_	counterclockwise_	loc41_	notarget_	incorrect_or_nopress	block2_flicker_shape2_black_counterclockwise_notarget_incorrect_or_nopressloc41_
193	2	2	263	2	1	0	0	63	0	0	222100063	block2_	flicker_	shape2_	black_	counterclockwise_	loc63_	notarget_	incorrect_or_nopress	block2_flicker_shape2_black_counterclockwise_notarget_incorrect_or_nopressloc63_
194	2	2	254	1	1	0	0	54	0	0	221100054	block2_	flicker_	shape1_	black_	counterclockwise_	loc54_	notarget_	incorrect_or_nopress	block2_flicker_shape1_black_counterclockwise_notarget_incorrect_or_nopressloc54_
195	2	2	257	1	2	0	0	57	0	0	221200057	block2_	flicker_	shape1_	white_	counterclockwise_	loc57_	notarget_	incorrect_or_nopress	block2_flicker_shape1_white_counterclockwise_notarget_incorrect_or_nopressloc57_
196	2	2	250	2	2	0	0	50	0	0	222200050	block2_	flicker_	shape2_	white_	counterclockwise_	loc50_	notarget_	incorrect_or_nopress	block2_flicker_shape2_white_counterclockwise_notarget_incorrect_or_nopressloc50_
197	2	2	217	1	1	0	0	17	0	0	221100017	block2_	flicker_	shape1_	black_	counterclockwise_	loc17_	notarget_	incorrect_or_nopress	block2_flicker_shape1_black_counterclockwise_notarget_incorrect_or_nopressloc17_
198	2	2	246	2	2	0	0	46	0	0	222200046	block2_	flicker_	shape2_	white_	counterclockwise_	loc46_	notarget_	incorrect_or_nopress	block2_flicker_shape2_white_counterclockwise_notarget_incorrect_or_nopressloc46_
199	2	2	222	1	2	0	0	22	0	0	221200022	block2_	flicker_	shape1_	white_	counterclockwise_	loc22_	notarget_	incorrect_or_nopress	block2_flicker_shape1_white_counterclockwise_notarget_incorrect_or_nopressloc22_
200	2	2	228	2	2	0	0	28	0	0	222200028	block2_	flicker_	shape2_	white_	counterclockwise_	loc28_	notarget_	incorrect_or_nopress	block2_flicker_shape2_white_counterclockwise_notarget_incorrect_or_nopressloc28_
201	2	2	262	1	2	0	0	62	0	0	221200062	block2_	flicker_	shape1_	white_	counterclockwise_	loc62_	notarget_	incorrect_or_nopress	block2_flicker_shape1_white_counterclockwise_notarget_incorrect_or_nopressloc62_
202	2	2	233	2	2	0	0	33	0	0	222200033	block2_	flicker_	shape2_	white_	counterclockwise_	loc33_	notarget_	incorrect_or_nopress	block2_flicker_shape2_white_counterclockwise_notarget_incorrect_or_nopressloc33_
203	2	2	226	1	2	0	0	26	0	0	221200026	block2_	flicker_	shape1_	white_	counterclockwise_	loc26_	notarget_	incorrect_or_nopress	block2_flicker_shape1_white_counterclockwise_notarget_incorrect_or_nopressloc26_
204	2	2	257	2	2	0	0	57	0	0	222200057	block2_	flicker_	shape2_	white_	counterclockwise_	loc57_	notarget_	incorrect_or_nopress	block2_flicker_shape2_white_counterclockwise_notarget_incorrect_or_nopressloc57_
205	2	2	241	1	1	0	0	41	0	0	221100041	block2_	flicker_	shape1_	black_	counterclockwise_	loc41_	notarget_	incorrect_or_nopress	block2_flicker_shape1_black_counterclockwise_notarget_incorrect_or_nopressloc41_
206	2	2	260	1	2	0	0	60	0	0	221200060	block2_	flicker_	shape1_	white_	counterclockwise_	loc60_	notarget_	incorrect_or_nopress	block2_flicker_shape1_white_counterclockwise_notarget_incorrect_or_nopressloc60_
207	2	2	204	2	2	0	0	4	0	0	222200004	block2_	flicker_	shape2_	white_	counterclockwise_	loc4_	notarget_	incorrect_or_nopress	block2_flicker_shape2_white_counterclockwise_notarget_incorrect_or_nopressloc4_
208	2	2	249	1	2	0	0	49	0	0	221200049	block2_	flicker_	shape1_	white_	counterclockwise_	loc49_	notarget_	incorrect_or_nopress	block2_flicker_shape1_white_counterclockwise_notarget_incorrect_or_nopressloc49_
209	2	2	253	2	1	0	0	53	0	0	222100053	block2_	flicker_	shape2_	black_	counterclockwise_	loc53_	notarget_	incorrect_or_nopress	block2_flicker_shape2_black_counterclockwise_notarget_incorrect_or_nopressloc53_
210	2	2	201	1	2	0	0	1	0	0	221200001	block2_	flicker_	shape1_	white_	counterclockwise_	loc1_	notarget_	incorrect_or_nopress	block2_flicker_shape1_white_counterclockwise_notarget_incorrect_or_nopressloc1_
211	2	2	253	1	1	0	0	53	0	0	221100053	block2_	flicker_	shape1_	black_	counterclockwise_	loc53_	notarget_	incorrect_or_nopress	block2_flicker_shape1_black_counterclockwise_notarget_incorrect_or_nopressloc53_
212	2	2	254	2	2	0	0	54	0	0	222200054	block2_	flicker_	shape2_	white_	counterclockwise_	loc54_	notarget_	incorrect_or_nopress	block2_flicker_shape2_white_counterclockwise_notarget_incorrect_or_nopressloc54_
213	2	2	259	2	1	0	0	59	0	0	222100059	block2_	flicker_	shape2_	black_	counterclockwise_	loc59_	notarget_	incorrect_or_nopress	block2_flicker_shape2_black_counterclockwise_notarget_incorrect_or_nopressloc59_
214	2	2	242	1	2	0	0	42	0	0	221200042	block2_	flicker_	shape1_	white_	counterclockwise_	loc42_	notarget_	incorrect_or_nopress	block2_flicker_shape1_white_counterclockwise_notarget_incorrect_or_nopressloc42_
215	2	2	261	2	1	0	0	61	0	0	222100061	block2_	flicker_	shape2_	black_	counterclockwise_	loc61_	notarget_	incorrect_or_nopress	block2_flicker_shape2_black_counterclockwise_notarget_incorrect_or_nopressloc61_
216	2	2	207	1	1	0	0	7	0	0	221100007	block2_	flicker_	shape1_	black_	counterclockwise_	loc7_	notarget_	incorrect_or_nopress	block2_flicker_shape1_black_counterclockwise_notarget_incorrect_or_nopressloc7_
217	2	2	244	1	2	0	0	44	0	0	221200044	block2_	flicker_	shape1_	white_	counterclockwise_	loc44_	notarget_	incorrect_or_nopress	block2_flicker_shape1_white_counterclockwise_notarget_incorrect_or_nopressloc44_
218	2	2	205	2	2	0	0	5	0	0	222200005	block2_	flicker_	shape2_	white_	counterclockwise_	loc5_	notarget_	incorrect_or_nopress	block2_flicker_shape2_white_counterclockwise_notarget_incorrect_or_nopressloc5_
219	2	2	244	2	2	0	0	44	0	0	222200044	block2_	flicker_	shape2_	white_	counterclockwise_	loc44_	notarget_	incorrect_or_nopress	block2_flicker_shape2_white_counterclockwise_notarget_incorrect_or_nopressloc44_
220	2	2	240	2	2	0	0	40	0	0	222200040	block2_	flicker_	shape2_	white_	counterclockwise_	loc40_	notarget_	incorrect_or_nopress	block2_flicker_shape2_white_counterclockwise_notarget_incorrect_or_nopressloc40_
221	2	2	216	2	2	0	0	16	0	0	222200016	block2_	flicker_	shape2_	white_	counterclockwise_	loc16_	notarget_	incorrect_or_nopress	block2_flicker_shape2_white_counterclockwise_notarget_incorrect_or_nopressloc16_
222	2	2	207	2	1	0	0	7	0	0	222100007	block2_	flicker_	shape2_	black_	counterclockwise_	loc7_	notarget_	incorrect_or_nopress	block2_flicker_shape2_black_counterclockwise_notarget_incorrect_or_nopressloc7_
223	2	2	224	2	1	0	0	24	0	0	222100024	block2_	flicker_	shape2_	black_	counterclockwise_	loc24_	notarget_	incorrect_or_nopress	block2_flicker_shape2_black_counterclockwise_notarget_incorrect_or_nopressloc24_
224	2	2	243	2	2	0	0	43	0	0	222200043	block2_	flicker_	shape2_	white_	counterclockwise_	loc43_	notarget_	incorrect_or_nopress	block2_flicker_shape2_white_counterclockwise_notarget_incorrect_or_nopressloc43_
225	2	2	264	1	2	0	0	64	0	0	221200064	block2_	flicker_	shape1_	white_	counterclockwise_	loc64_	notarget_	incorrect_or_nopress	block2_flicker_shape1_white_counterclockwise_notarget_incorrect_or_nopressloc64_
226	2	2	201	2	1	0	0	1	0	0	222100001	block2_	flicker_	shape2_	black_	counterclockwise_	loc1_	notarget_	incorrect_or_nopress	block2_flicker_shape2_black_counterclockwise_notarget_incorrect_or_nopressloc1_
227	2	2	208	1	1	0	0	8	0	0	221100008	block2_	flicker_	shape1_	black_	counterclockwise_	loc8_	notarget_	incorrect_or_nopress	block2_flicker_shape1_black_counterclockwise_notarget_incorrect_or_nopressloc8_
228	2	2	262	1	1	0	0	62	0	0	221100062	block2_	flicker_	shape1_	black_	counterclockwise_	loc62_	notarget_	incorrect_or_nopress	block2_flicker_shape1_black_counterclockwise_notarget_incorrect_or_nopressloc62_
229	2	2	236	1	2	0	0	36	0	0	221200036	block2_	flicker_	shape1_	white_	counterclockwise_	loc36_	notarget_	incorrect_or_nopress	block2_flicker_shape1_white_counterclockwise_notarget_incorrect_or_nopressloc36_
230	2	2	210	1	2	0	0	10	0	0	221200010	block2_	flicker_	shape1_	white_	counterclockwise_	loc10_	notarget_	incorrect_or_nopress	block2_flicker_shape1_white_counterclockwise_notarget_incorrect_or_nopressloc10_
231	2	2	211	2	1	0	0	11	0	0	222100011	block2_	flicker_	shape2_	black_	counterclockwise_	loc11_	notarget_	incorrect_or_nopress	block2_flicker_shape2_black_counterclockwise_notarget_incorrect_or_nopressloc11_
232	2	2	262	1	2	0	2	62	2	0	221202062	block2_	flicker_	shape1_	white_	counterclockwise_	loc62_	padding_	incorrect_or_nopress	block2_flicker_shape1_white_counterclockwise_padding_incorrect_or_nopressloc62_
233	2	2	244	2	1	0	2	44	2	0	222102044	block2_	flicker_	shape2_	black_	counterclockwise_	loc44_	padding_	incorrect_or_nopress	block2_flicker_shape2_black_counterclockwise_padding_incorrect_or_nopressloc44_
234	2	2	252	1	1	0	2	52	2	0	221102052	block2_	flicker_	shape1_	black_	counterclockwise_	loc52_	padding_	incorrect_or_nopress	block2_flicker_shape1_black_counterclockwise_padding_incorrect_or_nopressloc52_
235	2	2	251	2	1	0	2	51	2	0	222102051	block2_	flicker_	shape2_	black_	counterclockwise_	loc51_	padding_	incorrect_or_nopress	block2_flicker_shape2_black_counterclockwise_padding_incorrect_or_nopressloc51_
236	2	2	221	2	1	0	2	21	2	0	222102021	block2_	flicker_	shape2_	black_	counterclockwise_	loc21_	padding_	incorrect_or_nopress	block2_flicker_shape2_black_counterclockwise_padding_incorrect_or_nopressloc21_
237	2	2	228	1	2	0	2	28	2	0	221202028	block2_	flicker_	shape1_	white_	counterclockwise_	loc28_	padding_	incorrect_or_nopress	block2_flicker_shape1_white_counterclockwise_padding_incorrect_or_nopressloc28_
238	2	2	226	1	1	0	2	26	2	0	221102026	block2_	flicker_	shape1_	black_	counterclockwise_	loc26_	padding_	incorrect_or_nopress	block2_flicker_shape1_black_counterclockwise_padding_incorrect_or_nopressloc26_
239	2	2	246	1	2	0	1	46	1	0	221201046	block2_	flicker_	shape1_	white_	counterclockwise_	loc46_	istarget_	incorrect_or_nopress	block2_flicker_shape1_white_counterclockwise_istarget_incorrect_or_nopressloc46_
240	2	2	238	1	2	0	2	38	2	0	221202038	block2_	flicker_	shape1_	white_	counterclockwise_	loc38_	padding_	incorrect_or_nopress	block2_flicker_shape1_white_counterclockwise_padding_incorrect_or_nopressloc38_
241	2	2	206	2	2	0	2	6	2	0	222202006	block2_	flicker_	shape2_	white_	counterclockwise_	loc6_	padding_	incorrect_or_nopress	block2_flicker_shape2_white_counterclockwise_padding_incorrect_or_nopressloc6_
242	2	2	241	1	1	0	2	41	2	0	221102041	block2_	flicker_	shape1_	black_	counterclockwise_	loc41_	padding_	incorrect_or_nopress	block2_flicker_shape1_black_counterclockwise_padding_incorrect_or_nopressloc41_
243	2	2	210	1	1	0	2	10	2	0	221102010	block2_	flicker_	shape1_	black_	counterclockwise_	loc10_	padding_	incorrect_or_nopress	block2_flicker_shape1_black_counterclockwise_padding_incorrect_or_nopressloc10_
244	2	2	260	2	2	0	2	60	2	1	222202160	block2_	flicker_	shape2_	white_	counterclockwise_	loc60_	padding_	correct_or_press	block2_flicker_shape2_white_counterclockwise_padding_correct_or_pressloc60_
245	2	2	230	2	2	0	2	30	2	1	222202130	block2_	flicker_	shape2_	white_	counterclockwise_	loc30_	padding_	correct_or_press	block2_flicker_shape2_white_counterclockwise_padding_correct_or_pressloc30_
246	2	2	264	2	1	0	2	64	2	0	222102064	block2_	flicker_	shape2_	black_	counterclockwise_	loc64_	padding_	incorrect_or_nopress	block2_flicker_shape2_black_counterclockwise_padding_incorrect_or_nopressloc64_
247	2	2	209	2	2	0	2	9	2	0	222202009	block2_	flicker_	shape2_	white_	counterclockwise_	loc9_	padding_	incorrect_or_nopress	block2_flicker_shape2_white_counterclockwise_padding_incorrect_or_nopressloc9_
248	2	2	209	2	2	0	0	9	0	0	222200009	block2_	flicker_	shape2_	white_	counterclockwise_	loc9_	notarget_	incorrect_or_nopress	block2_flicker_shape2_white_counterclockwise_notarget_incorrect_or_nopressloc9_
249	2	2	261	2	2	0	0	61	0	0	222200061	block2_	flicker_	shape2_	white_	counterclockwise_	loc61_	notarget_	incorrect_or_nopress	block2_flicker_shape2_white_counterclockwise_notarget_incorrect_or_nopressloc61_
250	2	2	232	1	2	0	0	32	0	0	221200032	block2_	flicker_	shape1_	white_	counterclockwise_	loc32_	notarget_	incorrect_or_nopress	block2_flicker_shape1_white_counterclockwise_notarget_incorrect_or_nopressloc32_
251	2	2	230	1	1	0	0	30	0	0	221100030	block2_	flicker_	shape1_	black_	counterclockwise_	loc30_	notarget_	incorrect_or_nopress	block2_flicker_shape1_black_counterclockwise_notarget_incorrect_or_nopressloc30_
252	2	2	264	1	1	0	0	64	0	0	221100064	block2_	flicker_	shape1_	black_	counterclockwise_	loc64_	notarget_	incorrect_or_nopress	block2_flicker_shape1_black_counterclockwise_notarget_incorrect_or_nopressloc64_
253	2	2	259	2	2	0	0	59	0	0	222200059	block2_	flicker_	shape2_	white_	counterclockwise_	loc59_	notarget_	incorrect_or_nopress	block2_flicker_shape2_white_counterclockwise_notarget_incorrect_or_nopressloc59_
254	2	2	203	1	1	0	0	3	0	0	221100003	block2_	flicker_	shape1_	black_	counterclockwise_	loc3_	notarget_	incorrect_or_nopress	block2_flicker_shape1_black_counterclockwise_notarget_incorrect_or_nopressloc3_
255	2	2	205	2	1	0	0	5	0	0	222100005	block2_	flicker_	shape2_	black_	counterclockwise_	loc5_	notarget_	incorrect_or_nopress	block2_flicker_shape2_black_counterclockwise_notarget_incorrect_or_nopressloc5_
256	2	2	261	1	1	0	0	61	0	0	221100061	block2_	flicker_	shape1_	black_	counterclockwise_	loc61_	notarget_	incorrect_or_nopress	block2_flicker_shape1_black_counterclockwise_notarget_incorrect_or_nopressloc61_
257	2	2	207	1	2	0	0	7	0	0	221200007	block2_	flicker_	shape1_	white_	counterclockwise_	loc7_	notarget_	incorrect_or_nopress	block2_flicker_shape1_white_counterclockwise_notarget_incorrect_or_nopressloc7_
258	2	2	221	1	1	0	0	21	0	0	221100021	block2_	flicker_	shape1_	black_	counterclockwise_	loc21_	notarget_	incorrect_or_nopress	block2_flicker_shape1_black_counterclockwise_notarget_incorrect_or_nopressloc21_
259	2	2	222	1	1	0	0	22	0	0	221100022	block2_	flicker_	shape1_	black_	counterclockwise_	loc22_	notarget_	incorrect_or_nopress	block2_flicker_shape1_black_counterclockwise_notarget_incorrect_or_nopressloc22_
260	2	2	257	1	1	0	0	57	0	0	221100057	block2_	flicker_	shape1_	black_	counterclockwise_	loc57_	notarget_	incorrect_or_nopress	block2_flicker_shape1_black_counterclockwise_notarget_incorrect_or_nopressloc57_
261	2	2	264	2	2	0	0	64	0	0	222200064	block2_	flicker_	shape2_	white_	counterclockwise_	loc64_	notarget_	incorrect_or_nopress	block2_flicker_shape2_white_counterclockwise_notarget_incorrect_or_nopressloc64_
262	2	2	226	2	1	0	0	26	0	0	222100026	block2_	flicker_	shape2_	black_	counterclockwise_	loc26_	notarget_	incorrect_or_nopress	block2_flicker_shape2_black_counterclockwise_notarget_incorrect_or_nopressloc26_
263	2	2	220	1	1	0	0	20	0	0	221100020	block2_	flicker_	shape1_	black_	counterclockwise_	loc20_	notarget_	incorrect_or_nopress	block2_flicker_shape1_black_counterclockwise_notarget_incorrect_or_nopressloc20_
264	2	2	218	1	2	0	0	18	0	0	221200018	block2_	flicker_	shape1_	white_	counterclockwise_	loc18_	notarget_	incorrect_or_nopress	block2_flicker_shape1_white_counterclockwise_notarget_incorrect_or_nopressloc18_
265	2	2	214	1	1	0	0	14	0	0	221100014	block2_	flicker_	shape1_	black_	counterclockwise_	loc14_	notarget_	incorrect_or_nopress	block2_flicker_shape1_black_counterclockwise_notarget_incorrect_or_nopressloc14_
266	2	2	255	2	2	0	0	55	0	0	222200055	block2_	flicker_	shape2_	white_	counterclockwise_	loc55_	notarget_	incorrect_or_nopress	block2_flicker_shape2_white_counterclockwise_notarget_incorrect_or_nopressloc55_
267	2	2	249	2	2	0	0	49	0	0	222200049	block2_	flicker_	shape2_	white_	counterclockwise_	loc49_	notarget_	incorrect_or_nopress	block2_flicker_shape2_white_counterclockwise_notarget_incorrect_or_nopressloc49_
268	2	2	253	1	2	0	0	53	0	0	221200053	block2_	flicker_	shape1_	white_	counterclockwise_	loc53_	notarget_	incorrect_or_nopress	block2_flicker_shape1_white_counterclockwise_notarget_incorrect_or_nopressloc53_
269	2	2	264	2	1	0	0	64	0	0	222100064	block2_	flicker_	shape2_	black_	counterclockwise_	loc64_	notarget_	incorrect_or_nopress	block2_flicker_shape2_black_counterclockwise_notarget_incorrect_or_nopressloc64_
270	2	2	235	2	2	0	0	35	0	0	222200035	block2_	flicker_	shape2_	white_	counterclockwise_	loc35_	notarget_	incorrect_or_nopress	block2_flicker_shape2_white_counterclockwise_notarget_incorrect_or_nopressloc35_
271	2	2	227	1	1	0	0	27	0	0	221100027	block2_	flicker_	shape1_	black_	counterclockwise_	loc27_	notarget_	incorrect_or_nopress	block2_flicker_shape1_black_counterclockwise_notarget_incorrect_or_nopressloc27_
272	2	2	260	1	1	0	0	60	0	0	221100060	block2_	flicker_	shape1_	black_	counterclockwise_	loc60_	notarget_	incorrect_or_nopress	block2_flicker_shape1_black_counterclockwise_notarget_incorrect_or_nopressloc60_
273	2	2	228	1	2	0	0	28	0	0	221200028	block2_	flicker_	shape1_	white_	counterclockwise_	loc28_	notarget_	incorrect_or_nopress	block2_flicker_shape1_white_counterclockwise_notarget_incorrect_or_nopressloc28_
274	2	2	208	1	2	0	0	8	0	0	221200008	block2_	flicker_	shape1_	white_	counterclockwise_	loc8_	notarget_	incorrect_or_nopress	block2_flicker_shape1_white_counterclockwise_notarget_incorrect_or_nopressloc8_
275	2	2	260	2	2	0	0	60	0	0	222200060	block2_	flicker_	shape2_	white_	counterclockwise_	loc60_	notarget_	incorrect_or_nopress	block2_flicker_shape2_white_counterclockwise_notarget_incorrect_or_nopressloc60_
276	2	2	262	2	2	0	0	62	0	0	222200062	block2_	flicker_	shape2_	white_	counterclockwise_	loc62_	notarget_	incorrect_or_nopress	block2_flicker_shape2_white_counterclockwise_notarget_incorrect_or_nopressloc62_
277	2	2	218	2	2	0	0	18	0	0	222200018	block2_	flicker_	shape2_	white_	counterclockwise_	loc18_	notarget_	incorrect_or_nopress	block2_flicker_shape2_white_counterclockwise_notarget_incorrect_or_nopressloc18_
278	2	2	206	1	1	0	0	6	0	0	221100006	block2_	flicker_	shape1_	black_	counterclockwise_	loc6_	notarget_	incorrect_or_nopress	block2_flicker_shape1_black_counterclockwise_notarget_incorrect_or_nopressloc6_
279	2	2	245	1	1	0	0	45	0	0	221100045	block2_	flicker_	shape1_	black_	counterclockwise_	loc45_	notarget_	incorrect_or_nopress	block2_flicker_shape1_black_counterclockwise_notarget_incorrect_or_nopressloc45_
280	2	2	211	1	1	0	0	11	0	0	221100011	block2_	flicker_	shape1_	black_	counterclockwise_	loc11_	notarget_	incorrect_or_nopress	block2_flicker_shape1_black_counterclockwise_notarget_incorrect_or_nopressloc11_
281	2	2	225	2	2	0	0	25	0	0	222200025	block2_	flicker_	shape2_	white_	counterclockwise_	loc25_	notarget_	incorrect_or_nopress	block2_flicker_shape2_white_counterclockwise_notarget_incorrect_or_nopressloc25_
282	2	2	246	2	1	0	0	46	0	0	222100046	block2_	flicker_	shape2_	black_	counterclockwise_	loc46_	notarget_	incorrect_or_nopress	block2_flicker_shape2_black_counterclockwise_notarget_incorrect_or_nopressloc46_
283	2	2	227	2	1	0	0	27	0	0	222100027	block2_	flicker_	shape2_	black_	counterclockwise_	loc27_	notarget_	incorrect_or_nopress	block2_flicker_shape2_black_counterclockwise_notarget_incorrect_or_nopressloc27_
284	2	2	229	2	1	0	0	29	0	0	222100029	block2_	flicker_	shape2_	black_	counterclockwise_	loc29_	notarget_	incorrect_or_nopress	block2_flicker_shape2_black_counterclockwise_notarget_incorrect_or_nopressloc29_
285	2	2	250	2	1	0	0	50	0	0	222100050	block2_	flicker_	shape2_	black_	counterclockwise_	loc50_	notarget_	incorrect_or_nopress	block2_flicker_shape2_black_counterclockwise_notarget_incorrect_or_nopressloc50_
286	2	2	252	1	1	0	0	52	0	0	221100052	block2_	flicker_	shape1_	black_	counterclockwise_	loc52_	notarget_	incorrect_or_nopress	block2_flicker_shape1_black_counterclockwise_notarget_incorrect_or_nopressloc52_
287	2	2	214	2	1	0	0	14	0	0	222100014	block2_	flicker_	shape2_	black_	counterclockwise_	loc14_	notarget_	incorrect_or_nopress	block2_flicker_shape2_black_counterclockwise_notarget_incorrect_or_nopressloc14_
288	2	2	216	1	2	0	0	16	0	0	221200016	block2_	flicker_	shape1_	white_	counterclockwise_	loc16_	notarget_	incorrect_or_nopress	block2_flicker_shape1_white_counterclockwise_notarget_incorrect_or_nopressloc16_
289	2	2	202	2	1	0	0	2	0	0	222100002	block2_	flicker_	shape2_	black_	counterclockwise_	loc2_	notarget_	incorrect_or_nopress	block2_flicker_shape2_black_counterclockwise_notarget_incorrect_or_nopressloc2_
290	2	2	247	2	2	0	0	47	0	0	222200047	block2_	flicker_	shape2_	white_	counterclockwise_	loc47_	notarget_	incorrect_or_nopress	block2_flicker_shape2_white_counterclockwise_notarget_incorrect_or_nopressloc47_
291	2	2	256	2	1	0	0	56	0	0	222100056	block2_	flicker_	shape2_	black_	counterclockwise_	loc56_	notarget_	incorrect_or_nopress	block2_flicker_shape2_black_counterclockwise_notarget_incorrect_or_nopressloc56_
292	2	2	257	2	1	0	0	57	0	0	222100057	block2_	flicker_	shape2_	black_	counterclockwise_	loc57_	notarget_	incorrect_or_nopress	block2_flicker_shape2_black_counterclockwise_notarget_incorrect_or_nopressloc57_
293	2	2	212	2	1	0	0	12	0	0	222100012	block2_	flicker_	shape2_	black_	counterclockwise_	loc12_	notarget_	incorrect_or_nopress	block2_flicker_shape2_black_counterclockwise_notarget_incorrect_or_nopressloc12_
294	2	2	226	2	2	0	0	26	0	0	222200026	block2_	flicker_	shape2_	white_	counterclockwise_	loc26_	notarget_	incorrect_or_nopress	block2_flicker_shape2_white_counterclockwise_notarget_incorrect_or_nopressloc26_
295	2	2	202	1	2	0	0	2	0	0	221200002	block2_	flicker_	shape1_	white_	counterclockwise_	loc2_	notarget_	incorrect_or_nopress	block2_flicker_shape1_white_counterclockwise_notarget_incorrect_or_nopressloc2_
296	2	2	250	1	2	0	0	50	0	0	221200050	block2_	flicker_	shape1_	white_	counterclockwise_	loc50_	notarget_	incorrect_or_nopress	block2_flicker_shape1_white_counterclockwise_notarget_incorrect_or_nopressloc50_
297	2	2	223	2	2	0	0	23	0	0	222200023	block2_	flicker_	shape2_	white_	counterclockwise_	loc23_	notarget_	incorrect_or_nopress	block2_flicker_shape2_white_counterclockwise_notarget_incorrect_or_nopressloc23_
298	2	2	203	2	1	0	0	3	0	0	222100003	block2_	flicker_	shape2_	black_	counterclockwise_	loc3_	notarget_	incorrect_or_nopress	block2_flicker_shape2_black_counterclockwise_notarget_incorrect_or_nopressloc3_
299	2	2	220	2	2	0	0	20	0	0	222200020	block2_	flicker_	shape2_	white_	counterclockwise_	loc20_	notarget_	incorrect_or_nopress	block2_flicker_shape2_white_counterclockwise_notarget_incorrect_or_nopressloc20_
300	2	2	253	2	2	0	0	53	0	0	222200053	block2_	flicker_	shape2_	white_	counterclockwise_	loc53_	notarget_	incorrect_or_nopress	block2_flicker_shape2_white_counterclockwise_notarget_incorrect_or_nopressloc53_
301	2	2	258	2	2	0	0	58	0	0	222200058	block2_	flicker_	shape2_	white_	counterclockwise_	loc58_	notarget_	incorrect_or_nopress	block2_flicker_shape2_white_counterclockwise_notarget_incorrect_or_nopressloc58_
302	2	2	232	1	1	0	0	32	0	0	221100032	block2_	flicker_	shape1_	black_	counterclockwise_	loc32_	notarget_	incorrect_or_nopress	block2_flicker_shape1_black_counterclockwise_notarget_incorrect_or_nopressloc32_
303	2	2	240	2	1	0	0	40	0	0	222100040	block2_	flicker_	shape2_	black_	counterclockwise_	loc40_	notarget_	incorrect_or_nopress	block2_flicker_shape2_black_counterclockwise_notarget_incorrect_or_nopressloc40_
304	2	2	224	1	1	0	0	24	0	0	221100024	block2_	flicker_	shape1_	black_	counterclockwise_	loc24_	notarget_	incorrect_or_nopress	block2_flicker_shape1_black_counterclockwise_notarget_incorrect_or_nopressloc24_
305	2	2	244	2	1	0	0	44	0	0	222100044	block2_	flicker_	shape2_	black_	counterclockwise_	loc44_	notarget_	incorrect_or_nopress	block2_flicker_shape2_black_counterclockwise_notarget_incorrect_or_nopressloc44_
306	2	2	205	1	2	0	0	5	0	0	221200005	block2_	flicker_	shape1_	white_	counterclockwise_	loc5_	notarget_	incorrect_or_nopress	block2_flicker_shape1_white_counterclockwise_notarget_incorrect_or_nopressloc5_
307	2	2	203	2	2	0	0	3	0	0	222200003	block2_	flicker_	shape2_	white_	counterclockwise_	loc3_	notarget_	incorrect_or_nopress	block2_flicker_shape2_white_counterclockwise_notarget_incorrect_or_nopressloc3_
308	2	2	220	2	1	0	0	20	0	0	222100020	block2_	flicker_	shape2_	black_	counterclockwise_	loc20_	notarget_	incorrect_or_nopress	block2_flicker_shape2_black_counterclockwise_notarget_incorrect_or_nopressloc20_
309	2	2	256	2	2	0	0	56	0	0	222200056	block2_	flicker_	shape2_	white_	counterclockwise_	loc56_	notarget_	incorrect_or_nopress	block2_flicker_shape2_white_counterclockwise_notarget_incorrect_or_nopressloc56_
310	2	2	211	1	2	0	0	11	0	0	221200011	block2_	flicker_	shape1_	white_	counterclockwise_	loc11_	notarget_	incorrect_or_nopress	block2_flicker_shape1_white_counterclockwise_notarget_incorrect_or_nopressloc11_
311	2	2	208	2	1	0	0	8	0	0	222100008	block2_	flicker_	shape2_	black_	counterclockwise_	loc8_	notarget_	incorrect_or_nopress	block2_flicker_shape2_black_counterclockwise_notarget_incorrect_or_nopressloc8_
312	2	2	239	2	2	0	0	39	0	0	222200039	block2_	flicker_	shape2_	white_	counterclockwise_	loc39_	notarget_	incorrect_or_nopress	block2_flicker_shape2_white_counterclockwise_notarget_incorrect_or_nopressloc39_
313	2	2	210	1	1	0	0	10	0	0	221100010	block2_	flicker_	shape1_	black_	counterclockwise_	loc10_	notarget_	incorrect_or_nopress	block2_flicker_shape1_black_counterclockwise_notarget_incorrect_or_nopressloc10_
314	2	2	231	2	1	0	0	31	0	0	222100031	block2_	flicker_	shape2_	black_	counterclockwise_	loc31_	notarget_	incorrect_or_nopress	block2_flicker_shape2_black_counterclockwise_notarget_incorrect_or_nopressloc31_
315	2	2	207	2	2	0	0	7	0	0	222200007	block2_	flicker_	shape2_	white_	counterclockwise_	loc7_	notarget_	incorrect_or_nopress	block2_flicker_shape2_white_counterclockwise_notarget_incorrect_or_nopressloc7_
316	2	2	245	2	1	0	0	45	0	0	222100045	block2_	flicker_	shape2_	black_	counterclockwise_	loc45_	notarget_	incorrect_or_nopress	block2_flicker_shape2_black_counterclockwise_notarget_incorrect_or_nopressloc45_
317	2	2	242	2	2	0	0	42	0	0	222200042	block2_	flicker_	shape2_	white_	counterclockwise_	loc42_	notarget_	incorrect_or_nopress	block2_flicker_shape2_white_counterclockwise_notarget_incorrect_or_nopressloc42_
318	2	2	237	2	1	0	0	37	0	0	222100037	block2_	flicker_	shape2_	black_	counterclockwise_	loc37_	notarget_	incorrect_or_nopress	block2_flicker_shape2_black_counterclockwise_notarget_incorrect_or_nopressloc37_
319	2	2	221	2	2	0	0	21	0	0	222200021	block2_	flicker_	shape2_	white_	counterclockwise_	loc21_	notarget_	incorrect_or_nopress	block2_flicker_shape2_white_counterclockwise_notarget_incorrect_or_nopressloc21_
320	2	2	249	1	1	0	0	49	0	0	221100049	block2_	flicker_	shape1_	black_	counterclockwise_	loc49_	notarget_	incorrect_or_nopress	block2_flicker_shape1_black_counterclockwise_notarget_incorrect_or_nopressloc49_
321	2	2	225	2	1	0	0	25	0	0	222100025	block2_	flicker_	shape2_	black_	counterclockwise_	loc25_	notarget_	incorrect_or_nopress	block2_flicker_shape2_black_counterclockwise_notarget_incorrect_or_nopressloc25_
322	2	2	210	2	1	0	0	10	0	0	222100010	block2_	flicker_	shape2_	black_	counterclockwise_	loc10_	notarget_	incorrect_or_nopress	block2_flicker_shape2_black_counterclockwise_notarget_incorrect_or_nopressloc10_
323	2	2	216	1	1	0	0	16	0	0	221100016	block2_	flicker_	shape1_	black_	counterclockwise_	loc16_	notarget_	incorrect_or_nopress	block2_flicker_shape1_black_counterclockwise_notarget_incorrect_or_nopressloc16_
324	2	2	201	2	2	0	0	1	0	0	222200001	block2_	flicker_	shape2_	white_	counterclockwise_	loc1_	notarget_	incorrect_or_nopress	block2_flicker_shape2_white_counterclockwise_notarget_incorrect_or_nopressloc1_
325	2	2	238	2	1	0	0	38	0	0	222100038	block2_	flicker_	shape2_	black_	counterclockwise_	loc38_	notarget_	incorrect_or_nopress	block2_flicker_shape2_black_counterclockwise_notarget_incorrect_or_nopressloc38_
326	2	2	239	2	1	0	0	39	0	0	222100039	block2_	flicker_	shape2_	black_	counterclockwise_	loc39_	notarget_	incorrect_or_nopress	block2_flicker_shape2_black_counterclockwise_notarget_incorrect_or_nopressloc39_
327	2	2	250	1	1	0	0	50	0	0	221100050	block2_	flicker_	shape1_	black_	counterclockwise_	loc50_	notarget_	incorrect_or_nopress	block2_flicker_shape1_black_counterclockwise_notarget_incorrect_or_nopressloc50_
328	2	2	245	2	2	0	0	45	0	0	222200045	block2_	flicker_	shape2_	white_	counterclockwise_	loc45_	notarget_	incorrect_or_nopress	block2_flicker_shape2_white_counterclockwise_notarget_incorrect_or_nopressloc45_
329	2	2	212	2	2	0	0	12	0	0	222200012	block2_	flicker_	shape2_	white_	counterclockwise_	loc12_	notarget_	incorrect_or_nopress	block2_flicker_shape2_white_counterclockwise_notarget_incorrect_or_nopressloc12_
330	2	2	228	1	1	0	0	28	0	0	221100028	block2_	flicker_	shape1_	black_	counterclockwise_	loc28_	notarget_	incorrect_or_nopress	block2_flicker_shape1_black_counterclockwise_notarget_incorrect_or_nopressloc28_
331	2	2	223	2	1	0	0	23	0	0	222100023	block2_	flicker_	shape2_	black_	counterclockwise_	loc23_	notarget_	incorrect_or_nopress	block2_flicker_shape2_black_counterclockwise_notarget_incorrect_or_nopressloc23_
332	2	2	219	2	2	0	0	19	0	0	222200019	block2_	flicker_	shape2_	white_	counterclockwise_	loc19_	notarget_	incorrect_or_nopress	block2_flicker_shape2_white_counterclockwise_notarget_incorrect_or_nopressloc19_
333	2	2	246	1	1	0	0	46	0	0	221100046	block2_	flicker_	shape1_	black_	counterclockwise_	loc46_	notarget_	incorrect_or_nopress	block2_flicker_shape1_black_counterclockwise_notarget_incorrect_or_nopressloc46_
334	2	2	255	1	1	0	0	55	0	0	221100055	block2_	flicker_	shape1_	black_	counterclockwise_	loc55_	notarget_	incorrect_or_nopress	block2_flicker_shape1_black_counterclockwise_notarget_incorrect_or_nopressloc55_
335	2	2	219	1	1	0	0	19	0	0	221100019	block2_	flicker_	shape1_	black_	counterclockwise_	loc19_	notarget_	incorrect_or_nopress	block2_flicker_shape1_black_counterclockwise_notarget_incorrect_or_nopressloc19_
336	2	2	230	2	2	0	0	30	0	0	222200030	block2_	flicker_	shape2_	white_	counterclockwise_	loc30_	notarget_	incorrect_or_nopress	block2_flicker_shape2_white_counterclockwise_notarget_incorrect_or_nopressloc30_
337	2	2	213	1	2	0	0	13	0	0	221200013	block2_	flicker_	shape1_	white_	counterclockwise_	loc13_	notarget_	incorrect_or_nopress	block2_flicker_shape1_white_counterclockwise_notarget_incorrect_or_nopressloc13_
338	2	2	245	1	2	0	0	45	0	0	221200045	block2_	flicker_	shape1_	white_	counterclockwise_	loc45_	notarget_	incorrect_or_nopress	block2_flicker_shape1_white_counterclockwise_notarget_incorrect_or_nopressloc45_
339	2	2	243	1	2	0	0	43	0	0	221200043	block2_	flicker_	shape1_	white_	counterclockwise_	loc43_	notarget_	incorrect_or_nopress	block2_flicker_shape1_white_counterclockwise_notarget_incorrect_or_nopressloc43_
340	2	2	241	2	2	0	0	41	0	0	222200041	block2_	flicker_	shape2_	white_	counterclockwise_	loc41_	notarget_	incorrect_or_nopress	block2_flicker_shape2_white_counterclockwise_notarget_incorrect_or_nopressloc41_
341	2	2	214	1	2	0	0	14	0	0	221200014	block2_	flicker_	shape1_	white_	counterclockwise_	loc14_	notarget_	incorrect_or_nopress	block2_flicker_shape1_white_counterclockwise_notarget_incorrect_or_nopressloc14_
342	2	2	255	1	2	0	0	55	0	0	221200055	block2_	flicker_	shape1_	white_	counterclockwise_	loc55_	notarget_	incorrect_or_nopress	block2_flicker_shape1_white_counterclockwise_notarget_incorrect_or_nopressloc55_
343	2	2	252	2	2	0	0	52	0	0	222200052	block2_	flicker_	shape2_	white_	counterclockwise_	loc52_	notarget_	incorrect_or_nopress	block2_flicker_shape2_white_counterclockwise_notarget_incorrect_or_nopressloc52_
344	2	2	234	2	1	0	0	34	0	0	222100034	block2_	flicker_	shape2_	black_	counterclockwise_	loc34_	notarget_	incorrect_or_nopress	block2_flicker_shape2_black_counterclockwise_notarget_incorrect_or_nopressloc34_
345	2	2	225	1	1	0	0	25	0	0	221100025	block2_	flicker_	shape1_	black_	counterclockwise_	loc25_	notarget_	incorrect_or_nopress	block2_flicker_shape1_black_counterclockwise_notarget_incorrect_or_nopressloc25_
346	2	2	232	2	2	0	0	32	0	0	222200032	block2_	flicker_	shape2_	white_	counterclockwise_	loc32_	notarget_	incorrect_or_nopress	block2_flicker_shape2_white_counterclockwise_notarget_incorrect_or_nopressloc32_
347	2	2	209	1	2	0	0	9	0	0	221200009	block2_	flicker_	shape1_	white_	counterclockwise_	loc9_	notarget_	incorrect_or_nopress	block2_flicker_shape1_white_counterclockwise_notarget_incorrect_or_nopressloc9_
348	2	2	263	1	2	0	0	63	0	0	221200063	block2_	flicker_	shape1_	white_	counterclockwise_	loc63_	notarget_	incorrect_or_nopress	block2_flicker_shape1_white_counterclockwise_notarget_incorrect_or_nopressloc63_
349	2	2	229	1	2	0	0	29	0	0	221200029	block2_	flicker_	shape1_	white_	counterclockwise_	loc29_	notarget_	incorrect_or_nopress	block2_flicker_shape1_white_counterclockwise_notarget_incorrect_or_nopressloc29_
350	2	2	236	1	1	0	0	36	0	0	221100036	block2_	flicker_	shape1_	black_	counterclockwise_	loc36_	notarget_	incorrect_or_nopress	block2_flicker_shape1_black_counterclockwise_notarget_incorrect_or_nopressloc36_
351	2	2	251	2	1	0	0	51	0	0	222100051	block2_	flicker_	shape2_	black_	counterclockwise_	loc51_	notarget_	incorrect_or_nopress	block2_flicker_shape2_black_counterclockwise_notarget_incorrect_or_nopressloc51_
352	2	2	231	1	2	0	0	31	0	0	221200031	block2_	flicker_	shape1_	white_	counterclockwise_	loc31_	notarget_	incorrect_or_nopress	block2_flicker_shape1_white_counterclockwise_notarget_incorrect_or_nopressloc31_
353	2	2	236	2	2	0	0	36	0	0	222200036	block2_	flicker_	shape2_	white_	counterclockwise_	loc36_	notarget_	incorrect_or_nopress	block2_flicker_shape2_white_counterclockwise_notarget_incorrect_or_nopressloc36_
354	2	2	202	2	2	0	0	2	0	0	222200002	block2_	flicker_	shape2_	white_	counterclockwise_	loc2_	notarget_	incorrect_or_nopress	block2_flicker_shape2_white_counterclockwise_notarget_incorrect_or_nopressloc2_
355	2	2	263	2	2	0	0	63	0	0	222200063	block2_	flicker_	shape2_	white_	counterclockwise_	loc63_	notarget_	incorrect_or_nopress	block2_flicker_shape2_white_counterclockwise_notarget_incorrect_or_nopressloc63_
356	2	2	254	2	1	0	0	54	0	0	222100054	block2_	flicker_	shape2_	black_	counterclockwise_	loc54_	notarget_	incorrect_or_nopress	block2_flicker_shape2_black_counterclockwise_notarget_incorrect_or_nopressloc54_
357	2	2	262	2	1	0	0	62	0	0	222100062	block2_	flicker_	shape2_	black_	counterclockwise_	loc62_	notarget_	incorrect_or_nopress	block2_flicker_shape2_black_counterclockwise_notarget_incorrect_or_nopressloc62_
358	2	2	202	1	1	0	0	2	0	0	221100002	block2_	flicker_	shape1_	black_	counterclockwise_	loc2_	notarget_	incorrect_or_nopress	block2_flicker_shape1_black_counterclockwise_notarget_incorrect_or_nopressloc2_
359	2	2	219	2	1	0	0	19	0	0	222100019	block2_	flicker_	shape2_	black_	counterclockwise_	loc19_	notarget_	incorrect_or_nopress	block2_flicker_shape2_black_counterclockwise_notarget_incorrect_or_nopressloc19_
360	2	2	242	2	1	0	0	42	0	0	222100042	block2_	flicker_	shape2_	black_	counterclockwise_	loc42_	notarget_	incorrect_or_nopress	block2_flicker_shape2_black_counterclockwise_notarget_incorrect_or_nopressloc42_
361	2	2	255	2	1	0	0	55	0	0	222100055	block2_	flicker_	shape2_	black_	counterclockwise_	loc55_	notarget_	incorrect_or_nopress	block2_flicker_shape2_black_counterclockwise_notarget_incorrect_or_nopressloc55_
362	2	2	248	1	2	0	0	48	0	0	221200048	block2_	flicker_	shape1_	white_	counterclockwise_	loc48_	notarget_	incorrect_or_nopress	block2_flicker_shape1_white_counterclockwise_notarget_incorrect_or_nopressloc48_
363	2	2	261	1	2	0	0	61	0	0	221200061	block2_	flicker_	shape1_	white_	counterclockwise_	loc61_	notarget_	incorrect_or_nopress	block2_flicker_shape1_white_counterclockwise_notarget_incorrect_or_nopressloc61_
364	2	2	218	2	1	0	0	18	0	0	222100018	block2_	flicker_	shape2_	black_	counterclockwise_	loc18_	notarget_	incorrect_or_nopress	block2_flicker_shape2_black_counterclockwise_notarget_incorrect_or_nopressloc18_
365	2	2	212	1	2	0	0	12	0	0	221200012	block2_	flicker_	shape1_	white_	counterclockwise_	loc12_	notarget_	incorrect_or_nopress	block2_flicker_shape1_white_counterclockwise_notarget_incorrect_or_nopressloc12_
366	2	2	246	1	2	0	0	46	0	0	221200046	block2_	flicker_	shape1_	white_	counterclockwise_	loc46_	notarget_	incorrect_or_nopress	block2_flicker_shape1_white_counterclockwise_notarget_incorrect_or_nopressloc46_
367	2	2	235	1	1	0	0	35	0	0	221100035	block2_	flicker_	shape1_	black_	counterclockwise_	loc35_	notarget_	incorrect_or_nopress	block2_flicker_shape1_black_counterclockwise_notarget_incorrect_or_nopressloc35_
368	2	2	214	2	2	0	0	14	0	0	222200014	block2_	flicker_	shape2_	white_	counterclockwise_	loc14_	notarget_	incorrect_or_nopress	block2_flicker_shape2_white_counterclockwise_notarget_incorrect_or_nopressloc14_
369	2	2	213	2	2	0	0	13	0	0	222200013	block2_	flicker_	shape2_	white_	counterclockwise_	loc13_	notarget_	incorrect_or_nopress	block2_flicker_shape2_white_counterclockwise_notarget_incorrect_or_nopressloc13_
370	2	2	208	2	2	0	0	8	0	0	222200008	block2_	flicker_	shape2_	white_	counterclockwise_	loc8_	notarget_	incorrect_or_nopress	block2_flicker_shape2_white_counterclockwise_notarget_incorrect_or_nopressloc8_
371	2	2	233	2	1	0	0	33	0	0	222100033	block2_	flicker_	shape2_	black_	counterclockwise_	loc33_	notarget_	incorrect_or_nopress	block2_flicker_shape2_black_counterclockwise_notarget_incorrect_or_nopressloc33_
372	2	2	229	1	1	0	0	29	0	0	221100029	block2_	flicker_	shape1_	black_	counterclockwise_	loc29_	notarget_	incorrect_or_nopress	block2_flicker_shape1_black_counterclockwise_notarget_incorrect_or_nopressloc29_
373	2	2	220	1	2	0	0	20	0	0	221200020	block2_	flicker_	shape1_	white_	counterclockwise_	loc20_	notarget_	incorrect_or_nopress	block2_flicker_shape1_white_counterclockwise_notarget_incorrect_or_nopressloc20_
374	2	2	231	1	1	0	0	31	0	0	221100031	block2_	flicker_	shape1_	black_	counterclockwise_	loc31_	notarget_	incorrect_or_nopress	block2_flicker_shape1_black_counterclockwise_notarget_incorrect_or_nopressloc31_
375	2	2	218	1	1	0	0	18	0	0	221100018	block2_	flicker_	shape1_	black_	counterclockwise_	loc18_	notarget_	incorrect_or_nopress	block2_flicker_shape1_black_counterclockwise_notarget_incorrect_or_nopressloc18_
376	2	2	206	1	2	0	0	6	0	0	221200006	block2_	flicker_	shape1_	white_	counterclockwise_	loc6_	notarget_	incorrect_or_nopress	block2_flicker_shape1_white_counterclockwise_notarget_incorrect_or_nopressloc6_
377	2	2	224	1	2	0	0	24	0	0	221200024	block2_	flicker_	shape1_	white_	counterclockwise_	loc24_	notarget_	incorrect_or_nopress	block2_flicker_shape1_white_counterclockwise_notarget_incorrect_or_nopressloc24_
378	2	2	227	2	2	0	0	27	0	0	222200027	block2_	flicker_	shape2_	white_	counterclockwise_	loc27_	notarget_	incorrect_or_nopress	block2_flicker_shape2_white_counterclockwise_notarget_incorrect_or_nopressloc27_
379	2	2	209	1	1	0	0	9	0	0	221100009	block2_	flicker_	shape1_	black_	counterclockwise_	loc9_	notarget_	incorrect_or_nopress	block2_flicker_shape1_black_counterclockwise_notarget_incorrect_or_nopressloc9_
380	2	2	226	1	1	0	0	26	0	0	221100026	block2_	flicker_	shape1_	black_	counterclockwise_	loc26_	notarget_	incorrect_or_nopress	block2_flicker_shape1_black_counterclockwise_notarget_incorrect_or_nopressloc26_
381	2	2	206	2	1	0	0	6	0	0	222100006	block2_	flicker_	shape2_	black_	counterclockwise_	loc6_	notarget_	incorrect_or_nopress	block2_flicker_shape2_black_counterclockwise_notarget_incorrect_or_nopressloc6_
382	2	2	251	2	2	0	0	51	0	0	222200051	block2_	flicker_	shape2_	white_	counterclockwise_	loc51_	notarget_	incorrect_or_nopress	block2_flicker_shape2_white_counterclockwise_notarget_incorrect_or_nopressloc51_
383	2	2	219	1	2	0	0	19	0	0	221200019	block2_	flicker_	shape1_	white_	counterclockwise_	loc19_	notarget_	incorrect_or_nopress	block2_flicker_shape1_white_counterclockwise_notarget_incorrect_or_nopressloc19_
384	2	2	252	2	1	0	0	52	0	0	222100052	block2_	flicker_	shape2_	black_	counterclockwise_	loc52_	notarget_	incorrect_or_nopress	block2_flicker_shape2_black_counterclockwise_notarget_incorrect_or_nopressloc52_
385	2	2	249	2	2	0	2	49	2	0	222202049	block2_	flicker_	shape2_	white_	counterclockwise_	loc49_	padding_	incorrect_or_nopress	block2_flicker_shape2_white_counterclockwise_padding_incorrect_or_nopressloc49_
386	2	2	213	2	2	0	0	13	0	0	222200013	block2_	flicker_	shape2_	white_	counterclockwise_	loc13_	notarget_	incorrect_or_nopress	block2_flicker_shape2_white_counterclockwise_notarget_incorrect_or_nopressloc13_
387	2	2	241	1	2	0	0	41	0	0	221200041	block2_	flicker_	shape1_	white_	counterclockwise_	loc41_	notarget_	incorrect_or_nopress	block2_flicker_shape1_white_counterclockwise_notarget_incorrect_or_nopressloc41_
388	2	2	240	2	2	0	0	40	0	0	222200040	block2_	flicker_	shape2_	white_	counterclockwise_	loc40_	notarget_	incorrect_or_nopress	block2_flicker_shape2_white_counterclockwise_notarget_incorrect_or_nopressloc40_
389	2	2	229	2	1	0	0	29	0	0	222100029	block2_	flicker_	shape2_	black_	counterclockwise_	loc29_	notarget_	incorrect_or_nopress	block2_flicker_shape2_black_counterclockwise_notarget_incorrect_or_nopressloc29_
390	2	2	214	2	1	0	0	14	0	0	222100014	block2_	flicker_	shape2_	black_	counterclockwise_	loc14_	notarget_	incorrect_or_nopress	block2_flicker_shape2_black_counterclockwise_notarget_incorrect_or_nopressloc14_
391	2	2	233	2	2	0	0	33	0	0	222200033	block2_	flicker_	shape2_	white_	counterclockwise_	loc33_	notarget_	incorrect_or_nopress	block2_flicker_shape2_white_counterclockwise_notarget_incorrect_or_nopressloc33_
392	2	2	237	1	2	0	0	37	0	0	221200037	block2_	flicker_	shape1_	white_	counterclockwise_	loc37_	notarget_	incorrect_or_nopress	block2_flicker_shape1_white_counterclockwise_notarget_incorrect_or_nopressloc37_
393	2	2	221	2	1	0	0	21	0	0	222100021	block2_	flicker_	shape2_	black_	counterclockwise_	loc21_	notarget_	incorrect_or_nopress	block2_flicker_shape2_black_counterclockwise_notarget_incorrect_or_nopressloc21_
394	2	2	233	2	1	0	0	33	0	0	222100033	block2_	flicker_	shape2_	black_	counterclockwise_	loc33_	notarget_	incorrect_or_nopress	block2_flicker_shape2_black_counterclockwise_notarget_incorrect_or_nopressloc33_
395	2	2	210	1	2	0	0	10	0	0	221200010	block2_	flicker_	shape1_	white_	counterclockwise_	loc10_	notarget_	incorrect_or_nopress	block2_flicker_shape1_white_counterclockwise_notarget_incorrect_or_nopressloc10_
396	2	2	250	1	2	0	0	50	0	0	221200050	block2_	flicker_	shape1_	white_	counterclockwise_	loc50_	notarget_	incorrect_or_nopress	block2_flicker_shape1_white_counterclockwise_notarget_incorrect_or_nopressloc50_
397	2	2	253	2	2	0	0	53	0	0	222200053	block2_	flicker_	shape2_	white_	counterclockwise_	loc53_	notarget_	incorrect_or_nopress	block2_flicker_shape2_white_counterclockwise_notarget_incorrect_or_nopressloc53_
398	2	2	208	1	1	0	0	8	0	0	221100008	block2_	flicker_	shape1_	black_	counterclockwise_	loc8_	notarget_	incorrect_or_nopress	block2_flicker_shape1_black_counterclockwise_notarget_incorrect_or_nopressloc8_
399	2	2	261	2	2	0	0	61	0	0	222200061	block2_	flicker_	shape2_	white_	counterclockwise_	loc61_	notarget_	incorrect_or_nopress	block2_flicker_shape2_white_counterclockwise_notarget_incorrect_or_nopressloc61_
400	2	2	256	1	1	0	0	56	0	0	221100056	block2_	flicker_	shape1_	black_	counterclockwise_	loc56_	notarget_	incorrect_or_nopress	block2_flicker_shape1_black_counterclockwise_notarget_incorrect_or_nopressloc56_
401	2	2	209	1	2	0	2	9	2	0	221202009	block2_	flicker_	shape1_	white_	counterclockwise_	loc9_	padding_	incorrect_or_nopress	block2_flicker_shape1_white_counterclockwise_padding_incorrect_or_nopressloc9_
402	2	2	217	1	2	0	2	17	2	0	221202017	block2_	flicker_	shape1_	white_	counterclockwise_	loc17_	padding_	incorrect_or_nopress	block2_flicker_shape1_white_counterclockwise_padding_incorrect_or_nopressloc17_
403	2	2	257	1	1	0	2	57	2	0	221102057	block2_	flicker_	shape1_	black_	counterclockwise_	loc57_	padding_	incorrect_or_nopress	block2_flicker_shape1_black_counterclockwise_padding_incorrect_or_nopressloc57_
404	2	2	228	2	2	0	2	28	2	0	222202028	block2_	flicker_	shape2_	white_	counterclockwise_	loc28_	padding_	incorrect_or_nopress	block2_flicker_shape2_white_counterclockwise_padding_incorrect_or_nopressloc28_
405	2	2	221	2	2	0	2	21	2	0	222202021	block2_	flicker_	shape2_	white_	counterclockwise_	loc21_	padding_	incorrect_or_nopress	block2_flicker_shape2_white_counterclockwise_padding_incorrect_or_nopressloc21_
406	2	2	245	1	2	0	2	45	2	0	221202045	block2_	flicker_	shape1_	white_	counterclockwise_	loc45_	padding_	incorrect_or_nopress	block2_flicker_shape1_white_counterclockwise_padding_incorrect_or_nopressloc45_
407	2	2	251	2	2	0	2	51	2	0	222202051	block2_	flicker_	shape2_	white_	counterclockwise_	loc51_	padding_	incorrect_or_nopress	block2_flicker_shape2_white_counterclockwise_padding_incorrect_or_nopressloc51_
408	2	2	261	2	1	0	1	61	1	0	222101061	block2_	flicker_	shape2_	black_	counterclockwise_	loc61_	istarget_	incorrect_or_nopress	block2_flicker_shape2_black_counterclockwise_istarget_incorrect_or_nopressloc61_
409	2	2	256	2	2	0	2	56	2	0	222202056	block2_	flicker_	shape2_	white_	counterclockwise_	loc56_	padding_	incorrect_or_nopress	block2_flicker_shape2_white_counterclockwise_padding_incorrect_or_nopressloc56_
410	2	2	220	1	1	0	2	20	2	0	221102020	block2_	flicker_	shape1_	black_	counterclockwise_	loc20_	padding_	incorrect_or_nopress	block2_flicker_shape1_black_counterclockwise_padding_incorrect_or_nopressloc20_
411	2	2	259	2	1	0	2	59	2	1	222102159	block2_	flicker_	shape2_	black_	counterclockwise_	loc59_	padding_	correct_or_press	block2_flicker_shape2_black_counterclockwise_padding_correct_or_pressloc59_
412	2	2	206	2	1	0	2	6	2	1	222102106	block2_	flicker_	shape2_	black_	counterclockwise_	loc6_	padding_	correct_or_press	block2_flicker_shape2_black_counterclockwise_padding_correct_or_pressloc6_
413	2	2	216	1	1	0	2	16	2	1	221102116	block2_	flicker_	shape1_	black_	counterclockwise_	loc16_	padding_	correct_or_press	block2_flicker_shape1_black_counterclockwise_padding_correct_or_pressloc16_
414	2	2	223	1	1	0	2	23	2	0	221102023	block2_	flicker_	shape1_	black_	counterclockwise_	loc23_	padding_	incorrect_or_nopress	block2_flicker_shape1_black_counterclockwise_padding_incorrect_or_nopressloc23_
415	2	2	203	1	2	0	2	3	2	0	221202003	block2_	flicker_	shape1_	white_	counterclockwise_	loc3_	padding_	incorrect_or_nopress	block2_flicker_shape1_white_counterclockwise_padding_incorrect_or_nopressloc3_
416	2	2	240	2	1	0	2	40	2	0	222102040	block2_	flicker_	shape2_	black_	counterclockwise_	loc40_	padding_	incorrect_or_nopress	block2_flicker_shape2_black_counterclockwise_padding_incorrect_or_nopressloc40_
417	2	2	209	1	2	0	0	9	0	0	221200009	block2_	flicker_	shape1_	white_	counterclockwise_	loc9_	notarget_	incorrect_or_nopress	block2_flicker_shape1_white_counterclockwise_notarget_incorrect_or_nopressloc9_
418	2	2	228	2	1	0	0	28	0	0	222100028	block2_	flicker_	shape2_	black_	counterclockwise_	loc28_	notarget_	incorrect_or_nopress	block2_flicker_shape2_black_counterclockwise_notarget_incorrect_or_nopressloc28_
419	2	2	210	2	1	0	0	10	0	0	222100010	block2_	flicker_	shape2_	black_	counterclockwise_	loc10_	notarget_	incorrect_or_nopress	block2_flicker_shape2_black_counterclockwise_notarget_incorrect_or_nopressloc10_
420	2	2	218	1	1	0	0	18	0	0	221100018	block2_	flicker_	shape1_	black_	counterclockwise_	loc18_	notarget_	incorrect_or_nopress	block2_flicker_shape1_black_counterclockwise_notarget_incorrect_or_nopressloc18_
421	2	2	210	2	2	0	0	10	0	0	222200010	block2_	flicker_	shape2_	white_	counterclockwise_	loc10_	notarget_	incorrect_or_nopress	block2_flicker_shape2_white_counterclockwise_notarget_incorrect_or_nopressloc10_
422	2	2	244	1	2	0	0	44	0	0	221200044	block2_	flicker_	shape1_	white_	counterclockwise_	loc44_	notarget_	incorrect_or_nopress	block2_flicker_shape1_white_counterclockwise_notarget_incorrect_or_nopressloc44_
423	2	2	204	2	1	0	0	4	0	0	222100004	block2_	flicker_	shape2_	black_	counterclockwise_	loc4_	notarget_	incorrect_or_nopress	block2_flicker_shape2_black_counterclockwise_notarget_incorrect_or_nopressloc4_
424	2	2	206	1	2	0	0	6	0	0	221200006	block2_	flicker_	shape1_	white_	counterclockwise_	loc6_	notarget_	incorrect_or_nopress	block2_flicker_shape1_white_counterclockwise_notarget_incorrect_or_nopressloc6_
425	2	2	203	2	2	0	0	3	0	0	222200003	block2_	flicker_	shape2_	white_	counterclockwise_	loc3_	notarget_	incorrect_or_nopress	block2_flicker_shape2_white_counterclockwise_notarget_incorrect_or_nopressloc3_
426	2	2	246	2	1	0	0	46	0	0	222100046	block2_	flicker_	shape2_	black_	counterclockwise_	loc46_	notarget_	incorrect_or_nopress	block2_flicker_shape2_black_counterclockwise_notarget_incorrect_or_nopressloc46_
427	2	2	222	2	2	0	0	22	0	0	222200022	block2_	flicker_	shape2_	white_	counterclockwise_	loc22_	notarget_	incorrect_or_nopress	block2_flicker_shape2_white_counterclockwise_notarget_incorrect_or_nopressloc22_
428	2	2	247	2	2	0	0	47	0	0	222200047	block2_	flicker_	shape2_	white_	counterclockwise_	loc47_	notarget_	incorrect_or_nopress	block2_flicker_shape2_white_counterclockwise_notarget_incorrect_or_nopressloc47_
429	2	2	236	1	1	0	0	36	0	0	221100036	block2_	flicker_	shape1_	black_	counterclockwise_	loc36_	notarget_	incorrect_or_nopress	block2_flicker_shape1_black_counterclockwise_notarget_incorrect_or_nopressloc36_
430	2	2	206	2	1	0	0	6	0	0	222100006	block2_	flicker_	shape2_	black_	counterclockwise_	loc6_	notarget_	incorrect_or_nopress	block2_flicker_shape2_black_counterclockwise_notarget_incorrect_or_nopressloc6_
431	2	2	205	1	1	0	0	5	0	0	221100005	block2_	flicker_	shape1_	black_	counterclockwise_	loc5_	notarget_	incorrect_or_nopress	block2_flicker_shape1_black_counterclockwise_notarget_incorrect_or_nopressloc5_
432	2	2	229	1	2	0	0	29	0	0	221200029	block2_	flicker_	shape1_	white_	counterclockwise_	loc29_	notarget_	incorrect_or_nopress	block2_flicker_shape1_white_counterclockwise_notarget_incorrect_or_nopressloc29_
433	2	2	251	2	2	0	0	51	0	0	222200051	block2_	flicker_	shape2_	white_	counterclockwise_	loc51_	notarget_	incorrect_or_nopress	block2_flicker_shape2_white_counterclockwise_notarget_incorrect_or_nopressloc51_
434	2	2	254	1	1	0	0	54	0	0	221100054	block2_	flicker_	shape1_	black_	counterclockwise_	loc54_	notarget_	incorrect_or_nopress	block2_flicker_shape1_black_counterclockwise_notarget_incorrect_or_nopressloc54_
435	2	2	233	1	2	0	0	33	0	0	221200033	block2_	flicker_	shape1_	white_	counterclockwise_	loc33_	notarget_	incorrect_or_nopress	block2_flicker_shape1_white_counterclockwise_notarget_incorrect_or_nopressloc33_
436	2	2	236	2	1	0	0	36	0	0	222100036	block2_	flicker_	shape2_	black_	counterclockwise_	loc36_	notarget_	incorrect_or_nopress	block2_flicker_shape2_black_counterclockwise_notarget_incorrect_or_nopressloc36_
437	2	2	258	1	1	0	0	58	0	0	221100058	block2_	flicker_	shape1_	black_	counterclockwise_	loc58_	notarget_	incorrect_or_nopress	block2_flicker_shape1_black_counterclockwise_notarget_incorrect_or_nopressloc58_
438	2	2	201	1	2	0	0	1	0	0	221200001	block2_	flicker_	shape1_	white_	counterclockwise_	loc1_	notarget_	incorrect_or_nopress	block2_flicker_shape1_white_counterclockwise_notarget_incorrect_or_nopressloc1_
439	2	2	253	1	2	0	0	53	0	0	221200053	block2_	flicker_	shape1_	white_	counterclockwise_	loc53_	notarget_	incorrect_or_nopress	block2_flicker_shape1_white_counterclockwise_notarget_incorrect_or_nopressloc53_
440	2	2	213	2	1	0	0	13	0	0	222100013	block2_	flicker_	shape2_	black_	counterclockwise_	loc13_	notarget_	incorrect_or_nopress	block2_flicker_shape2_black_counterclockwise_notarget_incorrect_or_nopressloc13_
441	2	2	235	2	1	0	0	35	0	0	222100035	block2_	flicker_	shape2_	black_	counterclockwise_	loc35_	notarget_	incorrect_or_nopress	block2_flicker_shape2_black_counterclockwise_notarget_incorrect_or_nopressloc35_
442	2	2	225	2	2	0	0	25	0	0	222200025	block2_	flicker_	shape2_	white_	counterclockwise_	loc25_	notarget_	incorrect_or_nopress	block2_flicker_shape2_white_counterclockwise_notarget_incorrect_or_nopressloc25_
443	2	2	224	2	1	0	0	24	0	0	222100024	block2_	flicker_	shape2_	black_	counterclockwise_	loc24_	notarget_	incorrect_or_nopress	block2_flicker_shape2_black_counterclockwise_notarget_incorrect_or_nopressloc24_
444	2	2	224	1	2	0	0	24	0	0	221200024	block2_	flicker_	shape1_	white_	counterclockwise_	loc24_	notarget_	incorrect_or_nopress	block2_flicker_shape1_white_counterclockwise_notarget_incorrect_or_nopressloc24_
445	2	2	215	1	1	0	0	15	0	0	221100015	block2_	flicker_	shape1_	black_	counterclockwise_	loc15_	notarget_	incorrect_or_nopress	block2_flicker_shape1_black_counterclockwise_notarget_incorrect_or_nopressloc15_
446	2	2	259	1	2	0	0	59	0	0	221200059	block2_	flicker_	shape1_	white_	counterclockwise_	loc59_	notarget_	incorrect_or_nopress	block2_flicker_shape1_white_counterclockwise_notarget_incorrect_or_nopressloc59_
447	2	2	232	2	1	0	0	32	0	0	222100032	block2_	flicker_	shape2_	black_	counterclockwise_	loc32_	notarget_	incorrect_or_nopress	block2_flicker_shape2_black_counterclockwise_notarget_incorrect_or_nopressloc32_
448	2	2	220	1	2	0	0	20	0	0	221200020	block2_	flicker_	shape1_	white_	counterclockwise_	loc20_	notarget_	incorrect_or_nopress	block2_flicker_shape1_white_counterclockwise_notarget_incorrect_or_nopressloc20_
449	2	2	220	2	1	0	0	20	0	0	222100020	block2_	flicker_	shape2_	black_	counterclockwise_	loc20_	notarget_	incorrect_or_nopress	block2_flicker_shape2_black_counterclockwise_notarget_incorrect_or_nopressloc20_
450	2	2	255	2	1	0	0	55	0	0	222100055	block2_	flicker_	shape2_	black_	counterclockwise_	loc55_	notarget_	incorrect_or_nopress	block2_flicker_shape2_black_counterclockwise_notarget_incorrect_or_nopressloc55_
451	2	2	230	1	1	0	0	30	0	0	221100030	block2_	flicker_	shape1_	black_	counterclockwise_	loc30_	notarget_	incorrect_or_nopress	block2_flicker_shape1_black_counterclockwise_notarget_incorrect_or_nopressloc30_
452	2	2	202	1	1	0	0	2	0	0	221100002	block2_	flicker_	shape1_	black_	counterclockwise_	loc2_	notarget_	incorrect_or_nopress	block2_flicker_shape1_black_counterclockwise_notarget_incorrect_or_nopressloc2_
453	2	2	246	1	2	0	0	46	0	0	221200046	block2_	flicker_	shape1_	white_	counterclockwise_	loc46_	notarget_	incorrect_or_nopress	block2_flicker_shape1_white_counterclockwise_notarget_incorrect_or_nopressloc46_
454	2	2	207	1	2	0	0	7	0	0	221200007	block2_	flicker_	shape1_	white_	counterclockwise_	loc7_	notarget_	incorrect_or_nopress	block2_flicker_shape1_white_counterclockwise_notarget_incorrect_or_nopressloc7_
455	2	2	246	1	1	0	0	46	0	0	221100046	block2_	flicker_	shape1_	black_	counterclockwise_	loc46_	notarget_	incorrect_or_nopress	block2_flicker_shape1_black_counterclockwise_notarget_incorrect_or_nopressloc46_
456	2	2	252	2	2	0	0	52	0	0	222200052	block2_	flicker_	shape2_	white_	counterclockwise_	loc52_	notarget_	incorrect_or_nopress	block2_flicker_shape2_white_counterclockwise_notarget_incorrect_or_nopressloc52_
457	2	2	249	1	1	0	0	49	0	0	221100049	block2_	flicker_	shape1_	black_	counterclockwise_	loc49_	notarget_	incorrect_or_nopress	block2_flicker_shape1_black_counterclockwise_notarget_incorrect_or_nopressloc49_
458	2	2	258	2	1	0	0	58	0	0	222100058	block2_	flicker_	shape2_	black_	counterclockwise_	loc58_	notarget_	incorrect_or_nopress	block2_flicker_shape2_black_counterclockwise_notarget_incorrect_or_nopressloc58_
459	2	2	205	1	2	0	0	5	0	0	221200005	block2_	flicker_	shape1_	white_	counterclockwise_	loc5_	notarget_	incorrect_or_nopress	block2_flicker_shape1_white_counterclockwise_notarget_incorrect_or_nopressloc5_
460	2	2	232	1	1	0	0	32	0	0	221100032	block2_	flicker_	shape1_	black_	counterclockwise_	loc32_	notarget_	incorrect_or_nopress	block2_flicker_shape1_black_counterclockwise_notarget_incorrect_or_nopressloc32_
461	2	2	223	1	1	0	0	23	0	0	221100023	block2_	flicker_	shape1_	black_	counterclockwise_	loc23_	notarget_	incorrect_or_nopress	block2_flicker_shape1_black_counterclockwise_notarget_incorrect_or_nopressloc23_
462	2	2	263	1	2	0	0	63	0	0	221200063	block2_	flicker_	shape1_	white_	counterclockwise_	loc63_	notarget_	incorrect_or_nopress	block2_flicker_shape1_white_counterclockwise_notarget_incorrect_or_nopressloc63_
463	2	2	207	2	2	0	0	7	0	0	222200007	block2_	flicker_	shape2_	white_	counterclockwise_	loc7_	notarget_	incorrect_or_nopress	block2_flicker_shape2_white_counterclockwise_notarget_incorrect_or_nopressloc7_
464	2	2	208	1	2	0	0	8	0	0	221200008	block2_	flicker_	shape1_	white_	counterclockwise_	loc8_	notarget_	incorrect_or_nopress	block2_flicker_shape1_white_counterclockwise_notarget_incorrect_or_nopressloc8_
465	2	2	238	1	1	0	0	38	0	0	221100038	block2_	flicker_	shape1_	black_	counterclockwise_	loc38_	notarget_	incorrect_or_nopress	block2_flicker_shape1_black_counterclockwise_notarget_incorrect_or_nopressloc38_
466	2	2	218	2	1	0	0	18	0	0	222100018	block2_	flicker_	shape2_	black_	counterclockwise_	loc18_	notarget_	incorrect_or_nopress	block2_flicker_shape2_black_counterclockwise_notarget_incorrect_or_nopressloc18_
467	2	2	208	2	2	0	0	8	0	0	222200008	block2_	flicker_	shape2_	white_	counterclockwise_	loc8_	notarget_	incorrect_or_nopress	block2_flicker_shape2_white_counterclockwise_notarget_incorrect_or_nopressloc8_
468	2	2	256	2	2	0	0	56	0	0	222200056	block2_	flicker_	shape2_	white_	counterclockwise_	loc56_	notarget_	incorrect_or_nopress	block2_flicker_shape2_white_counterclockwise_notarget_incorrect_or_nopressloc56_
469	2	2	248	1	1	0	0	48	0	0	221100048	block2_	flicker_	shape1_	black_	counterclockwise_	loc48_	notarget_	incorrect_or_nopress	block2_flicker_shape1_black_counterclockwise_notarget_incorrect_or_nopressloc48_
470	2	2	216	1	1	0	0	16	0	0	221100016	block2_	flicker_	shape1_	black_	counterclockwise_	loc16_	notarget_	incorrect_or_nopress	block2_flicker_shape1_black_counterclockwise_notarget_incorrect_or_nopressloc16_
471	2	2	207	2	1	0	0	7	0	0	222100007	block2_	flicker_	shape2_	black_	counterclockwise_	loc7_	notarget_	incorrect_or_nopress	block2_flicker_shape2_black_counterclockwise_notarget_incorrect_or_nopressloc7_
472	2	2	208	2	1	0	0	8	0	0	222100008	block2_	flicker_	shape2_	black_	counterclockwise_	loc8_	notarget_	incorrect_or_nopress	block2_flicker_shape2_black_counterclockwise_notarget_incorrect_or_nopressloc8_
473	2	2	222	2	1	0	0	22	0	0	222100022	block2_	flicker_	shape2_	black_	counterclockwise_	loc22_	notarget_	incorrect_or_nopress	block2_flicker_shape2_black_counterclockwise_notarget_incorrect_or_nopressloc22_
474	2	2	260	1	2	0	0	60	0	0	221200060	block2_	flicker_	shape1_	white_	counterclockwise_	loc60_	notarget_	incorrect_or_nopress	block2_flicker_shape1_white_counterclockwise_notarget_incorrect_or_nopressloc60_
475	2	2	240	1	2	0	0	40	0	0	221200040	block2_	flicker_	shape1_	white_	counterclockwise_	loc40_	notarget_	incorrect_or_nopress	block2_flicker_shape1_white_counterclockwise_notarget_incorrect_or_nopressloc40_
476	2	2	237	1	1	0	0	37	0	0	221100037	block2_	flicker_	shape1_	black_	counterclockwise_	loc37_	notarget_	incorrect_or_nopress	block2_flicker_shape1_black_counterclockwise_notarget_incorrect_or_nopressloc37_
477	2	2	239	2	2	0	0	39	0	0	222200039	block2_	flicker_	shape2_	white_	counterclockwise_	loc39_	notarget_	incorrect_or_nopress	block2_flicker_shape2_white_counterclockwise_notarget_incorrect_or_nopressloc39_
478	2	2	212	1	2	0	0	12	0	0	221200012	block2_	flicker_	shape1_	white_	counterclockwise_	loc12_	notarget_	incorrect_or_nopress	block2_flicker_shape1_white_counterclockwise_notarget_incorrect_or_nopressloc12_
479	2	2	238	1	2	0	0	38	0	0	221200038	block2_	flicker_	shape1_	white_	counterclockwise_	loc38_	notarget_	incorrect_or_nopress	block2_flicker_shape1_white_counterclockwise_notarget_incorrect_or_nopressloc38_
480	2	2	242	2	1	0	0	42	0	0	222100042	block2_	flicker_	shape2_	black_	counterclockwise_	loc42_	notarget_	incorrect_or_nopress	block2_flicker_shape2_black_counterclockwise_notarget_incorrect_or_nopressloc42_
481	2	2	264	2	1	0	0	64	0	0	222100064	block2_	flicker_	shape2_	black_	counterclockwise_	loc64_	notarget_	incorrect_or_nopress	block2_flicker_shape2_black_counterclockwise_notarget_incorrect_or_nopressloc64_
482	2	2	224	2	2	0	0	24	0	0	222200024	block2_	flicker_	shape2_	white_	counterclockwise_	loc24_	notarget_	incorrect_or_nopress	block2_flicker_shape2_white_counterclockwise_notarget_incorrect_or_nopressloc24_
483	2	2	257	2	2	0	0	57	0	0	222200057	block2_	flicker_	shape2_	white_	counterclockwise_	loc57_	notarget_	incorrect_or_nopress	block2_flicker_shape2_white_counterclockwise_notarget_incorrect_or_nopressloc57_
484	2	2	262	2	1	0	0	62	0	0	222100062	block2_	flicker_	shape2_	black_	counterclockwise_	loc62_	notarget_	incorrect_or_nopress	block2_flicker_shape2_black_counterclockwise_notarget_incorrect_or_nopressloc62_
485	2	2	214	1	1	0	0	14	0	0	221100014	block2_	flicker_	shape1_	black_	counterclockwise_	loc14_	notarget_	incorrect_or_nopress	block2_flicker_shape1_black_counterclockwise_notarget_incorrect_or_nopressloc14_
486	2	2	244	1	1	0	0	44	0	0	221100044	block2_	flicker_	shape1_	black_	counterclockwise_	loc44_	notarget_	incorrect_or_nopress	block2_flicker_shape1_black_counterclockwise_notarget_incorrect_or_nopressloc44_
