	trial_type	block_num	trialID	shape	colour	direction	istarget	start_loc	target_position	accuracy_or_button	unique_ID	block_num_mod	trial_type_mod	shape_mod	colour_mod	direction_mod	start_loc_mod	istarget_mod	accuracy_or_button_mod	condition_name
0	1	4	131	2	2	1	1	3	20	1	412211103	block4_	disappearance_	shape2_	white_	clockwise_	loc3_	istarget_	correct_or_press	block4_disappearance_shape2_white_clockwise_istarget_correct_or_pressloc3_
1	1	4	106	1	1	1	0	2	0	1	411110102	block4_	disappearance_	shape1_	black_	clockwise_	loc2_	notarget_	correct_or_press	block4_disappearance_shape1_black_clockwise_notarget_correct_or_pressloc2_
2	1	4	117	2	1	2	0	1	0	1	412120101	block4_	disappearance_	shape2_	black_	counterclockwise_	loc1_	notarget_	correct_or_press	block4_disappearance_shape2_black_counterclockwise_notarget_correct_or_pressloc1_
3	1	4	123	2	1	1	1	3	15	1	412111103	block4_	disappearance_	shape2_	black_	clockwise_	loc3_	istarget_	correct_or_press	block4_disappearance_shape2_black_clockwise_istarget_correct_or_pressloc3_
4	1	4	121	2	1	1	0	1	0	1	412110101	block4_	disappearance_	shape2_	black_	clockwise_	loc1_	notarget_	correct_or_press	block4_disappearance_shape2_black_clockwise_notarget_correct_or_pressloc1_
5	1	4	107	1	1	1	0	3	0	1	411110103	block4_	disappearance_	shape1_	black_	clockwise_	loc3_	notarget_	correct_or_press	block4_disappearance_shape1_black_clockwise_notarget_correct_or_pressloc3_
6	1	4	114	1	2	1	0	2	0	1	411210102	block4_	disappearance_	shape1_	white_	clockwise_	loc2_	notarget_	correct_or_press	block4_disappearance_shape1_white_clockwise_notarget_correct_or_pressloc2_
7	1	4	117	2	1	2	0	1	0	1	412120101	block4_	disappearance_	shape2_	black_	counterclockwise_	loc1_	notarget_	correct_or_press	block4_disappearance_shape2_black_counterclockwise_notarget_correct_or_pressloc1_
8	1	4	111	1	2	2	0	3	0	1	411220103	block4_	disappearance_	shape1_	white_	counterclockwise_	loc3_	notarget_	correct_or_press	block4_disappearance_shape1_white_counterclockwise_notarget_correct_or_pressloc3_
9	1	4	118	2	1	2	0	2	0	1	412120102	block4_	disappearance_	shape2_	black_	counterclockwise_	loc2_	notarget_	correct_or_press	block4_disappearance_shape2_black_counterclockwise_notarget_correct_or_pressloc2_
10	1	4	123	2	1	1	0	3	0	1	412110103	block4_	disappearance_	shape2_	black_	clockwise_	loc3_	notarget_	correct_or_press	block4_disappearance_shape2_black_clockwise_notarget_correct_or_pressloc3_
11	1	4	128	2	2	2	0	4	0	1	412220104	block4_	disappearance_	shape2_	white_	counterclockwise_	loc4_	notarget_	correct_or_press	block4_disappearance_shape2_white_counterclockwise_notarget_correct_or_pressloc4_
12	1	4	119	2	1	2	0	3	0	1	412120103	block4_	disappearance_	shape2_	black_	counterclockwise_	loc3_	notarget_	correct_or_press	block4_disappearance_shape2_black_counterclockwise_notarget_correct_or_pressloc3_
13	1	4	125	2	2	2	1	1	16	1	412221101	block4_	disappearance_	shape2_	white_	counterclockwise_	loc1_	istarget_	correct_or_press	block4_disappearance_shape2_white_counterclockwise_istarget_correct_or_pressloc1_
14	1	4	107	1	1	1	0	3	0	1	411110103	block4_	disappearance_	shape1_	black_	clockwise_	loc3_	notarget_	correct_or_press	block4_disappearance_shape1_black_clockwise_notarget_correct_or_pressloc3_
15	1	4	126	2	2	2	0	2	0	1	412220102	block4_	disappearance_	shape2_	white_	counterclockwise_	loc2_	notarget_	correct_or_press	block4_disappearance_shape2_white_counterclockwise_notarget_correct_or_pressloc2_
16	1	4	111	1	2	2	0	3	0	1	411220103	block4_	disappearance_	shape1_	white_	counterclockwise_	loc3_	notarget_	correct_or_press	block4_disappearance_shape1_white_counterclockwise_notarget_correct_or_pressloc3_
17	1	4	122	2	1	1	0	2	0	1	412110102	block4_	disappearance_	shape2_	black_	clockwise_	loc2_	notarget_	correct_or_press	block4_disappearance_shape2_black_clockwise_notarget_correct_or_pressloc2_
18	1	4	106	1	1	1	0	2	0	1	411110102	block4_	disappearance_	shape1_	black_	clockwise_	loc2_	notarget_	correct_or_press	block4_disappearance_shape1_black_clockwise_notarget_correct_or_pressloc2_
19	1	4	124	2	1	1	0	4	0	1	412110104	block4_	disappearance_	shape2_	black_	clockwise_	loc4_	notarget_	correct_or_press	block4_disappearance_shape2_black_clockwise_notarget_correct_or_pressloc4_
20	1	4	104	1	1	2	1	4	9	1	411121104	block4_	disappearance_	shape1_	black_	counterclockwise_	loc4_	istarget_	correct_or_press	block4_disappearance_shape1_black_counterclockwise_istarget_correct_or_pressloc4_
21	1	4	120	2	1	2	0	4	0	1	412120104	block4_	disappearance_	shape2_	black_	counterclockwise_	loc4_	notarget_	correct_or_press	block4_disappearance_shape2_black_counterclockwise_notarget_correct_or_pressloc4_
22	1	4	120	2	1	2	1	4	18	1	412121104	block4_	disappearance_	shape2_	black_	counterclockwise_	loc4_	istarget_	correct_or_press	block4_disappearance_shape2_black_counterclockwise_istarget_correct_or_pressloc4_
23	1	4	114	1	2	1	0	2	0	1	411210102	block4_	disappearance_	shape1_	white_	clockwise_	loc2_	notarget_	correct_or_press	block4_disappearance_shape1_white_clockwise_notarget_correct_or_pressloc2_
24	1	4	126	2	2	2	0	2	0	1	412220102	block4_	disappearance_	shape2_	white_	counterclockwise_	loc2_	notarget_	correct_or_press	block4_disappearance_shape2_white_counterclockwise_notarget_correct_or_pressloc2_
25	1	4	129	2	2	1	0	1	0	1	412210101	block4_	disappearance_	shape2_	white_	clockwise_	loc1_	notarget_	correct_or_press	block4_disappearance_shape2_white_clockwise_notarget_correct_or_pressloc1_
26	1	4	111	1	2	2	1	3	14	1	411221103	block4_	disappearance_	shape1_	white_	counterclockwise_	loc3_	istarget_	correct_or_press	block4_disappearance_shape1_white_counterclockwise_istarget_correct_or_pressloc3_
27	1	4	113	1	2	1	0	1	0	1	411210101	block4_	disappearance_	shape1_	white_	clockwise_	loc1_	notarget_	correct_or_press	block4_disappearance_shape1_white_clockwise_notarget_correct_or_pressloc1_
28	1	4	102	1	1	2	1	2	14	1	411121102	block4_	disappearance_	shape1_	black_	counterclockwise_	loc2_	istarget_	correct_or_press	block4_disappearance_shape1_black_counterclockwise_istarget_correct_or_pressloc2_
29	1	4	123	2	1	1	1	3	13	1	412111103	block4_	disappearance_	shape2_	black_	clockwise_	loc3_	istarget_	correct_or_press	block4_disappearance_shape2_black_clockwise_istarget_correct_or_pressloc3_
30	1	4	107	1	1	1	0	3	0	1	411110103	block4_	disappearance_	shape1_	black_	clockwise_	loc3_	notarget_	correct_or_press	block4_disappearance_shape1_black_clockwise_notarget_correct_or_pressloc3_
31	1	4	130	2	2	1	0	2	0	1	412210102	block4_	disappearance_	shape2_	white_	clockwise_	loc2_	notarget_	correct_or_press	block4_disappearance_shape2_white_clockwise_notarget_correct_or_pressloc2_
32	1	4	102	1	1	2	0	2	0	1	411120102	block4_	disappearance_	shape1_	black_	counterclockwise_	loc2_	notarget_	correct_or_press	block4_disappearance_shape1_black_counterclockwise_notarget_correct_or_pressloc2_
33	1	4	108	1	1	1	0	4	0	1	411110104	block4_	disappearance_	shape1_	black_	clockwise_	loc4_	notarget_	correct_or_press	block4_disappearance_shape1_black_clockwise_notarget_correct_or_pressloc4_
34	1	4	112	1	2	2	0	4	0	1	411220104	block4_	disappearance_	shape1_	white_	counterclockwise_	loc4_	notarget_	correct_or_press	block4_disappearance_shape1_white_counterclockwise_notarget_correct_or_pressloc4_
35	1	4	114	1	2	1	0	2	0	1	411210102	block4_	disappearance_	shape1_	white_	clockwise_	loc2_	notarget_	correct_or_press	block4_disappearance_shape1_white_clockwise_notarget_correct_or_pressloc2_
36	1	4	107	1	1	1	1	3	15	1	411111103	block4_	disappearance_	shape1_	black_	clockwise_	loc3_	istarget_	correct_or_press	block4_disappearance_shape1_black_clockwise_istarget_correct_or_pressloc3_
37	1	4	121	2	1	1	0	1	0	1	412110101	block4_	disappearance_	shape2_	black_	clockwise_	loc1_	notarget_	correct_or_press	block4_disappearance_shape2_black_clockwise_notarget_correct_or_pressloc1_
38	1	4	123	2	1	1	0	3	0	1	412110103	block4_	disappearance_	shape2_	black_	clockwise_	loc3_	notarget_	correct_or_press	block4_disappearance_shape2_black_clockwise_notarget_correct_or_pressloc3_
39	1	4	111	1	2	2	0	3	0	1	411220103	block4_	disappearance_	shape1_	white_	counterclockwise_	loc3_	notarget_	correct_or_press	block4_disappearance_shape1_white_counterclockwise_notarget_correct_or_pressloc3_
40	1	4	127	2	2	2	0	3	0	1	412220103	block4_	disappearance_	shape2_	white_	counterclockwise_	loc3_	notarget_	correct_or_press	block4_disappearance_shape2_white_counterclockwise_notarget_correct_or_pressloc3_
41	1	4	105	1	1	1	0	1	0	1	411110101	block4_	disappearance_	shape1_	black_	clockwise_	loc1_	notarget_	correct_or_press	block4_disappearance_shape1_black_clockwise_notarget_correct_or_pressloc1_
42	1	4	127	2	2	2	0	3	0	1	412220103	block4_	disappearance_	shape2_	white_	counterclockwise_	loc3_	notarget_	correct_or_press	block4_disappearance_shape2_white_counterclockwise_notarget_correct_or_pressloc3_
43	1	4	130	2	2	1	0	2	0	1	412210102	block4_	disappearance_	shape2_	white_	clockwise_	loc2_	notarget_	correct_or_press	block4_disappearance_shape2_white_clockwise_notarget_correct_or_pressloc2_
44	1	4	119	2	1	2	0	3	0	1	412120103	block4_	disappearance_	shape2_	black_	counterclockwise_	loc3_	notarget_	correct_or_press	block4_disappearance_shape2_black_counterclockwise_notarget_correct_or_pressloc3_
45	1	4	103	1	1	2	1	3	12	1	411121103	block4_	disappearance_	shape1_	black_	counterclockwise_	loc3_	istarget_	correct_or_press	block4_disappearance_shape1_black_counterclockwise_istarget_correct_or_pressloc3_
46	1	4	128	2	2	2	0	4	0	1	412220104	block4_	disappearance_	shape2_	white_	counterclockwise_	loc4_	notarget_	correct_or_press	block4_disappearance_shape2_white_counterclockwise_notarget_correct_or_pressloc4_
47	1	4	109	1	2	2	0	1	0	1	411220101	block4_	disappearance_	shape1_	white_	counterclockwise_	loc1_	notarget_	correct_or_press	block4_disappearance_shape1_white_counterclockwise_notarget_correct_or_pressloc1_
48	1	4	104	1	1	2	0	4	0	1	411120104	block4_	disappearance_	shape1_	black_	counterclockwise_	loc4_	notarget_	correct_or_press	block4_disappearance_shape1_black_counterclockwise_notarget_correct_or_pressloc4_
49	1	4	116	1	2	1	0	4	0	1	411210104	block4_	disappearance_	shape1_	white_	clockwise_	loc4_	notarget_	correct_or_press	block4_disappearance_shape1_white_clockwise_notarget_correct_or_pressloc4_
50	1	4	130	2	2	1	0	2	0	1	412210102	block4_	disappearance_	shape2_	white_	clockwise_	loc2_	notarget_	correct_or_press	block4_disappearance_shape2_white_clockwise_notarget_correct_or_pressloc2_
51	1	4	123	2	1	1	0	3	0	1	412110103	block4_	disappearance_	shape2_	black_	clockwise_	loc3_	notarget_	correct_or_press	block4_disappearance_shape2_black_clockwise_notarget_correct_or_pressloc3_
52	1	4	112	1	2	2	1	4	16	1	411221104	block4_	disappearance_	shape1_	white_	counterclockwise_	loc4_	istarget_	correct_or_press	block4_disappearance_shape1_white_counterclockwise_istarget_correct_or_pressloc4_
53	1	4	104	1	1	2	0	4	0	1	411120104	block4_	disappearance_	shape1_	black_	counterclockwise_	loc4_	notarget_	correct_or_press	block4_disappearance_shape1_black_counterclockwise_notarget_correct_or_pressloc4_
54	1	4	117	2	1	2	0	1	0	1	412120101	block4_	disappearance_	shape2_	black_	counterclockwise_	loc1_	notarget_	correct_or_press	block4_disappearance_shape2_black_counterclockwise_notarget_correct_or_pressloc1_
55	1	4	110	1	2	2	0	2	0	1	411220102	block4_	disappearance_	shape1_	white_	counterclockwise_	loc2_	notarget_	correct_or_press	block4_disappearance_shape1_white_counterclockwise_notarget_correct_or_pressloc2_
56	1	4	122	2	1	1	0	2	0	1	412110102	block4_	disappearance_	shape2_	black_	clockwise_	loc2_	notarget_	correct_or_press	block4_disappearance_shape2_black_clockwise_notarget_correct_or_pressloc2_
57	1	4	105	1	1	1	1	1	12	1	411111101	block4_	disappearance_	shape1_	black_	clockwise_	loc1_	istarget_	correct_or_press	block4_disappearance_shape1_black_clockwise_istarget_correct_or_pressloc1_
58	1	4	113	1	2	1	0	1	0	1	411210101	block4_	disappearance_	shape1_	white_	clockwise_	loc1_	notarget_	correct_or_press	block4_disappearance_shape1_white_clockwise_notarget_correct_or_pressloc1_
59	1	4	131	2	2	1	0	3	0	1	412210103	block4_	disappearance_	shape2_	white_	clockwise_	loc3_	notarget_	correct_or_press	block4_disappearance_shape2_white_clockwise_notarget_correct_or_pressloc3_
60	1	4	102	1	1	2	0	2	0	1	411120102	block4_	disappearance_	shape1_	black_	counterclockwise_	loc2_	notarget_	correct_or_press	block4_disappearance_shape1_black_counterclockwise_notarget_correct_or_pressloc2_
61	1	4	120	2	1	2	0	4	0	1	412120104	block4_	disappearance_	shape2_	black_	counterclockwise_	loc4_	notarget_	correct_or_press	block4_disappearance_shape2_black_counterclockwise_notarget_correct_or_pressloc4_
62	1	4	129	2	2	1	0	1	0	1	412210101	block4_	disappearance_	shape2_	white_	clockwise_	loc1_	notarget_	correct_or_press	block4_disappearance_shape2_white_clockwise_notarget_correct_or_pressloc1_
63	1	4	110	1	2	2	0	2	0	1	411220102	block4_	disappearance_	shape1_	white_	counterclockwise_	loc2_	notarget_	correct_or_press	block4_disappearance_shape1_white_counterclockwise_notarget_correct_or_pressloc2_
64	1	4	131	2	2	1	0	3	0	1	412210103	block4_	disappearance_	shape2_	white_	clockwise_	loc3_	notarget_	correct_or_press	block4_disappearance_shape2_white_clockwise_notarget_correct_or_pressloc3_
65	1	4	132	2	2	1	0	4	0	1	412210104	block4_	disappearance_	shape2_	white_	clockwise_	loc4_	notarget_	correct_or_press	block4_disappearance_shape2_white_clockwise_notarget_correct_or_pressloc4_
66	1	4	109	1	2	2	0	1	0	1	411220101	block4_	disappearance_	shape1_	white_	counterclockwise_	loc1_	notarget_	correct_or_press	block4_disappearance_shape1_white_counterclockwise_notarget_correct_or_pressloc1_
67	1	4	112	1	2	2	0	4	0	1	411220104	block4_	disappearance_	shape1_	white_	counterclockwise_	loc4_	notarget_	correct_or_press	block4_disappearance_shape1_white_counterclockwise_notarget_correct_or_pressloc4_
68	1	4	115	1	2	1	1	3	16	1	411211103	block4_	disappearance_	shape1_	white_	clockwise_	loc3_	istarget_	correct_or_press	block4_disappearance_shape1_white_clockwise_istarget_correct_or_pressloc3_
69	1	4	129	2	2	1	0	1	0	1	412210101	block4_	disappearance_	shape2_	white_	clockwise_	loc1_	notarget_	correct_or_press	block4_disappearance_shape2_white_clockwise_notarget_correct_or_pressloc1_
70	1	4	103	1	1	2	0	3	0	1	411120103	block4_	disappearance_	shape1_	black_	counterclockwise_	loc3_	notarget_	correct_or_press	block4_disappearance_shape1_black_counterclockwise_notarget_correct_or_pressloc3_
71	1	4	124	2	1	1	0	4	0	1	412110104	block4_	disappearance_	shape2_	black_	clockwise_	loc4_	notarget_	correct_or_press	block4_disappearance_shape2_black_clockwise_notarget_correct_or_pressloc4_
72	1	4	115	1	2	1	0	3	0	1	411210103	block4_	disappearance_	shape1_	white_	clockwise_	loc3_	notarget_	correct_or_press	block4_disappearance_shape1_white_clockwise_notarget_correct_or_pressloc3_
73	1	4	132	2	2	1	0	4	0	1	412210104	block4_	disappearance_	shape2_	white_	clockwise_	loc4_	notarget_	correct_or_press	block4_disappearance_shape2_white_clockwise_notarget_correct_or_pressloc4_
74	1	4	104	1	1	2	0	4	0	1	411120104	block4_	disappearance_	shape1_	black_	counterclockwise_	loc4_	notarget_	correct_or_press	block4_disappearance_shape1_black_counterclockwise_notarget_correct_or_pressloc4_
75	1	4	110	1	2	2	0	2	0	1	411220102	block4_	disappearance_	shape1_	white_	counterclockwise_	loc2_	notarget_	correct_or_press	block4_disappearance_shape1_white_counterclockwise_notarget_correct_or_pressloc2_
76	1	4	102	1	1	2	0	2	0	1	411120102	block4_	disappearance_	shape1_	black_	counterclockwise_	loc2_	notarget_	correct_or_press	block4_disappearance_shape1_black_counterclockwise_notarget_correct_or_pressloc2_
77	1	4	101	1	1	2	0	1	0	1	411120101	block4_	disappearance_	shape1_	black_	counterclockwise_	loc1_	notarget_	correct_or_press	block4_disappearance_shape1_black_counterclockwise_notarget_correct_or_pressloc1_
78	1	4	101	1	1	2	0	1	0	1	411120101	block4_	disappearance_	shape1_	black_	counterclockwise_	loc1_	notarget_	correct_or_press	block4_disappearance_shape1_black_counterclockwise_notarget_correct_or_pressloc1_
79	1	4	125	2	2	2	0	1	0	1	412220101	block4_	disappearance_	shape2_	white_	counterclockwise_	loc1_	notarget_	correct_or_press	block4_disappearance_shape2_white_counterclockwise_notarget_correct_or_pressloc1_
80	1	4	124	2	1	1	0	4	0	1	412110104	block4_	disappearance_	shape2_	black_	clockwise_	loc4_	notarget_	correct_or_press	block4_disappearance_shape2_black_clockwise_notarget_correct_or_pressloc4_
81	1	4	108	1	1	1	0	4	0	1	411110104	block4_	disappearance_	shape1_	black_	clockwise_	loc4_	notarget_	correct_or_press	block4_disappearance_shape1_black_clockwise_notarget_correct_or_pressloc4_
82	1	4	115	1	2	1	0	3	0	1	411210103	block4_	disappearance_	shape1_	white_	clockwise_	loc3_	notarget_	correct_or_press	block4_disappearance_shape1_white_clockwise_notarget_correct_or_pressloc3_
83	1	4	125	2	2	2	0	1	0	1	412220101	block4_	disappearance_	shape2_	white_	counterclockwise_	loc1_	notarget_	correct_or_press	block4_disappearance_shape2_white_counterclockwise_notarget_correct_or_pressloc1_
84	1	4	113	1	2	1	0	1	0	1	411210101	block4_	disappearance_	shape1_	white_	clockwise_	loc1_	notarget_	correct_or_press	block4_disappearance_shape1_white_clockwise_notarget_correct_or_pressloc1_
85	1	4	130	2	2	1	1	2	18	1	412211102	block4_	disappearance_	shape2_	white_	clockwise_	loc2_	istarget_	correct_or_press	block4_disappearance_shape2_white_clockwise_istarget_correct_or_pressloc2_
86	1	4	127	2	2	2	0	3	0	1	412220103	block4_	disappearance_	shape2_	white_	counterclockwise_	loc3_	notarget_	correct_or_press	block4_disappearance_shape2_white_counterclockwise_notarget_correct_or_pressloc3_
87	1	4	131	2	2	1	0	3	0	1	412210103	block4_	disappearance_	shape2_	white_	clockwise_	loc3_	notarget_	correct_or_press	block4_disappearance_shape2_white_clockwise_notarget_correct_or_pressloc3_
88	1	4	108	1	1	1	0	4	0	1	411110104	block4_	disappearance_	shape1_	black_	clockwise_	loc4_	notarget_	correct_or_press	block4_disappearance_shape1_black_clockwise_notarget_correct_or_pressloc4_
89	1	4	122	2	1	1	1	2	9	1	412111102	block4_	disappearance_	shape2_	black_	clockwise_	loc2_	istarget_	correct_or_press	block4_disappearance_shape2_black_clockwise_istarget_correct_or_pressloc2_
90	1	4	105	1	1	1	0	1	0	1	411110101	block4_	disappearance_	shape1_	black_	clockwise_	loc1_	notarget_	correct_or_press	block4_disappearance_shape1_black_clockwise_notarget_correct_or_pressloc1_
91	1	4	103	1	1	2	0	3	0	1	411120103	block4_	disappearance_	shape1_	black_	counterclockwise_	loc3_	notarget_	correct_or_press	block4_disappearance_shape1_black_counterclockwise_notarget_correct_or_pressloc3_
92	1	4	119	2	1	2	0	3	0	1	412120103	block4_	disappearance_	shape2_	black_	counterclockwise_	loc3_	notarget_	correct_or_press	block4_disappearance_shape2_black_counterclockwise_notarget_correct_or_pressloc3_
93	1	4	128	2	2	2	0	4	0	1	412220104	block4_	disappearance_	shape2_	white_	counterclockwise_	loc4_	notarget_	correct_or_press	block4_disappearance_shape2_white_counterclockwise_notarget_correct_or_pressloc4_
94	1	4	112	1	2	2	0	4	0	1	411220104	block4_	disappearance_	shape1_	white_	counterclockwise_	loc4_	notarget_	correct_or_press	block4_disappearance_shape1_white_counterclockwise_notarget_correct_or_pressloc4_
95	1	4	122	2	1	1	0	2	0	1	412110102	block4_	disappearance_	shape2_	black_	clockwise_	loc2_	notarget_	correct_or_press	block4_disappearance_shape2_black_clockwise_notarget_correct_or_pressloc2_
96	1	4	118	2	1	2	0	2	0	1	412120102	block4_	disappearance_	shape2_	black_	counterclockwise_	loc2_	notarget_	correct_or_press	block4_disappearance_shape2_black_counterclockwise_notarget_correct_or_pressloc2_
97	1	4	116	1	2	1	0	4	0	1	411210104	block4_	disappearance_	shape1_	white_	clockwise_	loc4_	notarget_	correct_or_press	block4_disappearance_shape1_white_clockwise_notarget_correct_or_pressloc4_
98	1	4	101	1	1	2	0	1	0	1	411120101	block4_	disappearance_	shape1_	black_	counterclockwise_	loc1_	notarget_	correct_or_press	block4_disappearance_shape1_black_counterclockwise_notarget_correct_or_pressloc1_
99	1	4	118	2	1	2	1	2	16	1	412121102	block4_	disappearance_	shape2_	black_	counterclockwise_	loc2_	istarget_	correct_or_press	block4_disappearance_shape2_black_counterclockwise_istarget_correct_or_pressloc2_
100	1	4	125	2	2	2	0	1	0	1	412220101	block4_	disappearance_	shape2_	white_	counterclockwise_	loc1_	notarget_	correct_or_press	block4_disappearance_shape2_white_counterclockwise_notarget_correct_or_pressloc1_
101	1	4	115	1	2	1	0	3	0	1	411210103	block4_	disappearance_	shape1_	white_	clockwise_	loc3_	notarget_	correct_or_press	block4_disappearance_shape1_white_clockwise_notarget_correct_or_pressloc3_
102	1	4	109	1	2	2	0	1	0	1	411220101	block4_	disappearance_	shape1_	white_	counterclockwise_	loc1_	notarget_	correct_or_press	block4_disappearance_shape1_white_counterclockwise_notarget_correct_or_pressloc1_
103	1	4	106	1	1	1	0	2	0	1	411110102	block4_	disappearance_	shape1_	black_	clockwise_	loc2_	notarget_	correct_or_press	block4_disappearance_shape1_black_clockwise_notarget_correct_or_pressloc2_
104	1	4	106	1	1	1	1	2	19	1	411111102	block4_	disappearance_	shape1_	black_	clockwise_	loc2_	istarget_	correct_or_press	block4_disappearance_shape1_black_clockwise_istarget_correct_or_pressloc2_
105	1	4	105	1	1	1	0	1	0	1	411110101	block4_	disappearance_	shape1_	black_	clockwise_	loc1_	notarget_	correct_or_press	block4_disappearance_shape1_black_clockwise_notarget_correct_or_pressloc1_
106	1	4	118	2	1	2	0	2	0	1	412120102	block4_	disappearance_	shape2_	black_	counterclockwise_	loc2_	notarget_	correct_or_press	block4_disappearance_shape2_black_counterclockwise_notarget_correct_or_pressloc2_
107	1	4	120	2	1	2	0	4	0	1	412120104	block4_	disappearance_	shape2_	black_	counterclockwise_	loc4_	notarget_	correct_or_press	block4_disappearance_shape2_black_counterclockwise_notarget_correct_or_pressloc4_
108	1	4	130	2	2	1	1	2	13	1	412211102	block4_	disappearance_	shape2_	white_	clockwise_	loc2_	istarget_	correct_or_press	block4_disappearance_shape2_white_clockwise_istarget_correct_or_pressloc2_
109	1	4	121	2	1	1	0	1	0	1	412110101	block4_	disappearance_	shape2_	black_	clockwise_	loc1_	notarget_	correct_or_press	block4_disappearance_shape2_black_clockwise_notarget_correct_or_pressloc1_
110	1	4	132	2	2	1	0	4	0	1	412210104	block4_	disappearance_	shape2_	white_	clockwise_	loc4_	notarget_	correct_or_press	block4_disappearance_shape2_white_clockwise_notarget_correct_or_pressloc4_
111	1	4	103	1	1	2	0	3	0	1	411120103	block4_	disappearance_	shape1_	black_	counterclockwise_	loc3_	notarget_	correct_or_press	block4_disappearance_shape1_black_counterclockwise_notarget_correct_or_pressloc3_
112	1	4	116	1	2	1	0	4	0	1	411210104	block4_	disappearance_	shape1_	white_	clockwise_	loc4_	notarget_	correct_or_press	block4_disappearance_shape1_white_clockwise_notarget_correct_or_pressloc4_
113	1	4	115	1	2	1	1	3	17	1	411211103	block4_	disappearance_	shape1_	white_	clockwise_	loc3_	istarget_	correct_or_press	block4_disappearance_shape1_white_clockwise_istarget_correct_or_pressloc3_
114	1	4	126	2	2	2	0	2	0	1	412220102	block4_	disappearance_	shape2_	white_	counterclockwise_	loc2_	notarget_	correct_or_press	block4_disappearance_shape2_white_counterclockwise_notarget_correct_or_pressloc2_
115	2	4	230	1	2	0	2	30	2	0	421202030	block4_	flicker_	shape1_	white_	counterclockwise_	loc30_	padding_	incorrect_or_nopress	block4_flicker_shape1_white_counterclockwise_padding_incorrect_or_nopressloc30_
116	2	4	222	1	1	0	0	22	0	0	421100022	block4_	flicker_	shape1_	black_	counterclockwise_	loc22_	notarget_	incorrect_or_nopress	block4_flicker_shape1_black_counterclockwise_notarget_incorrect_or_nopressloc22_
117	2	4	251	1	2	0	0	51	0	0	421200051	block4_	flicker_	shape1_	white_	counterclockwise_	loc51_	notarget_	incorrect_or_nopress	block4_flicker_shape1_white_counterclockwise_notarget_incorrect_or_nopressloc51_
118	2	4	261	1	2	0	0	61	0	0	421200061	block4_	flicker_	shape1_	white_	counterclockwise_	loc61_	notarget_	incorrect_or_nopress	block4_flicker_shape1_white_counterclockwise_notarget_incorrect_or_nopressloc61_
119	2	4	218	2	2	0	0	18	0	0	422200018	block4_	flicker_	shape2_	white_	counterclockwise_	loc18_	notarget_	incorrect_or_nopress	block4_flicker_shape2_white_counterclockwise_notarget_incorrect_or_nopressloc18_
120	2	4	228	2	2	0	0	28	0	0	422200028	block4_	flicker_	shape2_	white_	counterclockwise_	loc28_	notarget_	incorrect_or_nopress	block4_flicker_shape2_white_counterclockwise_notarget_incorrect_or_nopressloc28_
121	2	4	246	2	2	0	0	46	0	0	422200046	block4_	flicker_	shape2_	white_	counterclockwise_	loc46_	notarget_	incorrect_or_nopress	block4_flicker_shape2_white_counterclockwise_notarget_incorrect_or_nopressloc46_
122	2	4	244	1	1	0	0	44	0	0	421100044	block4_	flicker_	shape1_	black_	counterclockwise_	loc44_	notarget_	incorrect_or_nopress	block4_flicker_shape1_black_counterclockwise_notarget_incorrect_or_nopressloc44_
123	2	4	227	2	2	0	0	27	0	0	422200027	block4_	flicker_	shape2_	white_	counterclockwise_	loc27_	notarget_	incorrect_or_nopress	block4_flicker_shape2_white_counterclockwise_notarget_incorrect_or_nopressloc27_
124	2	4	243	2	1	0	0	43	0	0	422100043	block4_	flicker_	shape2_	black_	counterclockwise_	loc43_	notarget_	incorrect_or_nopress	block4_flicker_shape2_black_counterclockwise_notarget_incorrect_or_nopressloc43_
125	2	4	242	2	1	0	0	42	0	0	422100042	block4_	flicker_	shape2_	black_	counterclockwise_	loc42_	notarget_	incorrect_or_nopress	block4_flicker_shape2_black_counterclockwise_notarget_incorrect_or_nopressloc42_
126	2	4	239	1	2	0	0	39	0	0	421200039	block4_	flicker_	shape1_	white_	counterclockwise_	loc39_	notarget_	incorrect_or_nopress	block4_flicker_shape1_white_counterclockwise_notarget_incorrect_or_nopressloc39_
127	2	4	205	2	2	0	0	5	0	0	422200005	block4_	flicker_	shape2_	white_	counterclockwise_	loc5_	notarget_	incorrect_or_nopress	block4_flicker_shape2_white_counterclockwise_notarget_incorrect_or_nopressloc5_
128	2	4	242	2	2	0	0	42	0	0	422200042	block4_	flicker_	shape2_	white_	counterclockwise_	loc42_	notarget_	incorrect_or_nopress	block4_flicker_shape2_white_counterclockwise_notarget_incorrect_or_nopressloc42_
129	2	4	237	2	2	0	0	37	0	0	422200037	block4_	flicker_	shape2_	white_	counterclockwise_	loc37_	notarget_	incorrect_or_nopress	block4_flicker_shape2_white_counterclockwise_notarget_incorrect_or_nopressloc37_
130	2	4	223	2	1	0	0	23	0	0	422100023	block4_	flicker_	shape2_	black_	counterclockwise_	loc23_	notarget_	incorrect_or_nopress	block4_flicker_shape2_black_counterclockwise_notarget_incorrect_or_nopressloc23_
131	2	4	227	2	1	0	0	27	0	0	422100027	block4_	flicker_	shape2_	black_	counterclockwise_	loc27_	notarget_	incorrect_or_nopress	block4_flicker_shape2_black_counterclockwise_notarget_incorrect_or_nopressloc27_
132	2	4	229	2	1	0	0	29	0	0	422100029	block4_	flicker_	shape2_	black_	counterclockwise_	loc29_	notarget_	incorrect_or_nopress	block4_flicker_shape2_black_counterclockwise_notarget_incorrect_or_nopressloc29_
133	2	4	255	2	2	0	0	55	0	0	422200055	block4_	flicker_	shape2_	white_	counterclockwise_	loc55_	notarget_	incorrect_or_nopress	block4_flicker_shape2_white_counterclockwise_notarget_incorrect_or_nopressloc55_
134	2	4	251	2	2	0	0	51	0	0	422200051	block4_	flicker_	shape2_	white_	counterclockwise_	loc51_	notarget_	incorrect_or_nopress	block4_flicker_shape2_white_counterclockwise_notarget_incorrect_or_nopressloc51_
135	2	4	235	2	1	0	0	35	0	0	422100035	block4_	flicker_	shape2_	black_	counterclockwise_	loc35_	notarget_	incorrect_or_nopress	block4_flicker_shape2_black_counterclockwise_notarget_incorrect_or_nopressloc35_
136	2	4	255	1	2	0	0	55	0	0	421200055	block4_	flicker_	shape1_	white_	counterclockwise_	loc55_	notarget_	incorrect_or_nopress	block4_flicker_shape1_white_counterclockwise_notarget_incorrect_or_nopressloc55_
137	2	4	219	2	2	0	0	19	0	0	422200019	block4_	flicker_	shape2_	white_	counterclockwise_	loc19_	notarget_	incorrect_or_nopress	block4_flicker_shape2_white_counterclockwise_notarget_incorrect_or_nopressloc19_
138	2	4	211	1	1	0	0	11	0	0	421100011	block4_	flicker_	shape1_	black_	counterclockwise_	loc11_	notarget_	incorrect_or_nopress	block4_flicker_shape1_black_counterclockwise_notarget_incorrect_or_nopressloc11_
139	2	4	208	1	2	0	0	8	0	0	421200008	block4_	flicker_	shape1_	white_	counterclockwise_	loc8_	notarget_	incorrect_or_nopress	block4_flicker_shape1_white_counterclockwise_notarget_incorrect_or_nopressloc8_
140	2	4	242	1	2	0	0	42	0	0	421200042	block4_	flicker_	shape1_	white_	counterclockwise_	loc42_	notarget_	incorrect_or_nopress	block4_flicker_shape1_white_counterclockwise_notarget_incorrect_or_nopressloc42_
141	2	4	246	1	1	0	0	46	0	0	421100046	block4_	flicker_	shape1_	black_	counterclockwise_	loc46_	notarget_	incorrect_or_nopress	block4_flicker_shape1_black_counterclockwise_notarget_incorrect_or_nopressloc46_
142	2	4	209	2	2	0	0	9	0	0	422200009	block4_	flicker_	shape2_	white_	counterclockwise_	loc9_	notarget_	incorrect_or_nopress	block4_flicker_shape2_white_counterclockwise_notarget_incorrect_or_nopressloc9_
143	2	4	206	2	1	0	0	6	0	0	422100006	block4_	flicker_	shape2_	black_	counterclockwise_	loc6_	notarget_	incorrect_or_nopress	block4_flicker_shape2_black_counterclockwise_notarget_incorrect_or_nopressloc6_
144	2	4	261	2	2	0	0	61	0	0	422200061	block4_	flicker_	shape2_	white_	counterclockwise_	loc61_	notarget_	incorrect_or_nopress	block4_flicker_shape2_white_counterclockwise_notarget_incorrect_or_nopressloc61_
145	2	4	228	2	1	0	0	28	0	0	422100028	block4_	flicker_	shape2_	black_	counterclockwise_	loc28_	notarget_	incorrect_or_nopress	block4_flicker_shape2_black_counterclockwise_notarget_incorrect_or_nopressloc28_
146	2	4	244	1	2	0	0	44	0	0	421200044	block4_	flicker_	shape1_	white_	counterclockwise_	loc44_	notarget_	incorrect_or_nopress	block4_flicker_shape1_white_counterclockwise_notarget_incorrect_or_nopressloc44_
147	2	4	209	1	2	0	0	9	0	0	421200009	block4_	flicker_	shape1_	white_	counterclockwise_	loc9_	notarget_	incorrect_or_nopress	block4_flicker_shape1_white_counterclockwise_notarget_incorrect_or_nopressloc9_
148	2	4	219	2	1	0	0	19	0	0	422100019	block4_	flicker_	shape2_	black_	counterclockwise_	loc19_	notarget_	incorrect_or_nopress	block4_flicker_shape2_black_counterclockwise_notarget_incorrect_or_nopressloc19_
149	2	4	246	1	2	0	0	46	0	0	421200046	block4_	flicker_	shape1_	white_	counterclockwise_	loc46_	notarget_	incorrect_or_nopress	block4_flicker_shape1_white_counterclockwise_notarget_incorrect_or_nopressloc46_
150	2	4	230	2	1	0	0	30	0	0	422100030	block4_	flicker_	shape2_	black_	counterclockwise_	loc30_	notarget_	incorrect_or_nopress	block4_flicker_shape2_black_counterclockwise_notarget_incorrect_or_nopressloc30_
151	2	4	231	2	2	0	0	31	0	0	422200031	block4_	flicker_	shape2_	white_	counterclockwise_	loc31_	notarget_	incorrect_or_nopress	block4_flicker_shape2_white_counterclockwise_notarget_incorrect_or_nopressloc31_
152	2	4	247	2	1	0	0	47	0	0	422100047	block4_	flicker_	shape2_	black_	counterclockwise_	loc47_	notarget_	incorrect_or_nopress	block4_flicker_shape2_black_counterclockwise_notarget_incorrect_or_nopressloc47_
153	2	4	220	2	1	0	0	20	0	0	422100020	block4_	flicker_	shape2_	black_	counterclockwise_	loc20_	notarget_	incorrect_or_nopress	block4_flicker_shape2_black_counterclockwise_notarget_incorrect_or_nopressloc20_
154	2	4	225	2	1	0	0	25	0	0	422100025	block4_	flicker_	shape2_	black_	counterclockwise_	loc25_	notarget_	incorrect_or_nopress	block4_flicker_shape2_black_counterclockwise_notarget_incorrect_or_nopressloc25_
155	2	4	220	1	1	0	0	20	0	0	421100020	block4_	flicker_	shape1_	black_	counterclockwise_	loc20_	notarget_	incorrect_or_nopress	block4_flicker_shape1_black_counterclockwise_notarget_incorrect_or_nopressloc20_
156	2	4	247	1	2	0	0	47	0	0	421200047	block4_	flicker_	shape1_	white_	counterclockwise_	loc47_	notarget_	incorrect_or_nopress	block4_flicker_shape1_white_counterclockwise_notarget_incorrect_or_nopressloc47_
157	2	4	224	1	2	0	0	24	0	0	421200024	block4_	flicker_	shape1_	white_	counterclockwise_	loc24_	notarget_	incorrect_or_nopress	block4_flicker_shape1_white_counterclockwise_notarget_incorrect_or_nopressloc24_
158	2	4	262	1	1	0	0	62	0	0	421100062	block4_	flicker_	shape1_	black_	counterclockwise_	loc62_	notarget_	incorrect_or_nopress	block4_flicker_shape1_black_counterclockwise_notarget_incorrect_or_nopressloc62_
159	2	4	254	1	2	0	0	54	0	0	421200054	block4_	flicker_	shape1_	white_	counterclockwise_	loc54_	notarget_	incorrect_or_nopress	block4_flicker_shape1_white_counterclockwise_notarget_incorrect_or_nopressloc54_
160	2	4	261	2	1	0	0	61	0	0	422100061	block4_	flicker_	shape2_	black_	counterclockwise_	loc61_	notarget_	incorrect_or_nopress	block4_flicker_shape2_black_counterclockwise_notarget_incorrect_or_nopressloc61_
161	2	4	242	1	1	0	0	42	0	0	421100042	block4_	flicker_	shape1_	black_	counterclockwise_	loc42_	notarget_	incorrect_or_nopress	block4_flicker_shape1_black_counterclockwise_notarget_incorrect_or_nopressloc42_
162	2	4	236	2	1	0	0	36	0	0	422100036	block4_	flicker_	shape2_	black_	counterclockwise_	loc36_	notarget_	incorrect_or_nopress	block4_flicker_shape2_black_counterclockwise_notarget_incorrect_or_nopressloc36_
163	2	4	201	2	1	0	0	1	0	0	422100001	block4_	flicker_	shape2_	black_	counterclockwise_	loc1_	notarget_	incorrect_or_nopress	block4_flicker_shape2_black_counterclockwise_notarget_incorrect_or_nopressloc1_
164	2	4	238	1	2	0	0	38	0	0	421200038	block4_	flicker_	shape1_	white_	counterclockwise_	loc38_	notarget_	incorrect_or_nopress	block4_flicker_shape1_white_counterclockwise_notarget_incorrect_or_nopressloc38_
165	2	4	252	1	1	0	0	52	0	0	421100052	block4_	flicker_	shape1_	black_	counterclockwise_	loc52_	notarget_	incorrect_or_nopress	block4_flicker_shape1_black_counterclockwise_notarget_incorrect_or_nopressloc52_
166	2	4	214	2	1	0	0	14	0	0	422100014	block4_	flicker_	shape2_	black_	counterclockwise_	loc14_	notarget_	incorrect_or_nopress	block4_flicker_shape2_black_counterclockwise_notarget_incorrect_or_nopressloc14_
167	2	4	216	2	2	0	0	16	0	0	422200016	block4_	flicker_	shape2_	white_	counterclockwise_	loc16_	notarget_	incorrect_or_nopress	block4_flicker_shape2_white_counterclockwise_notarget_incorrect_or_nopressloc16_
168	2	4	222	1	2	0	0	22	0	0	421200022	block4_	flicker_	shape1_	white_	counterclockwise_	loc22_	notarget_	incorrect_or_nopress	block4_flicker_shape1_white_counterclockwise_notarget_incorrect_or_nopressloc22_
169	2	4	254	2	1	0	0	54	0	0	422100054	block4_	flicker_	shape2_	black_	counterclockwise_	loc54_	notarget_	incorrect_or_nopress	block4_flicker_shape2_black_counterclockwise_notarget_incorrect_or_nopressloc54_
170	2	4	230	2	2	0	0	30	0	0	422200030	block4_	flicker_	shape2_	white_	counterclockwise_	loc30_	notarget_	incorrect_or_nopress	block4_flicker_shape2_white_counterclockwise_notarget_incorrect_or_nopressloc30_
171	2	4	245	1	1	0	0	45	0	0	421100045	block4_	flicker_	shape1_	black_	counterclockwise_	loc45_	notarget_	incorrect_or_nopress	block4_flicker_shape1_black_counterclockwise_notarget_incorrect_or_nopressloc45_
172	2	4	236	1	1	0	0	36	0	0	421100036	block4_	flicker_	shape1_	black_	counterclockwise_	loc36_	notarget_	incorrect_or_nopress	block4_flicker_shape1_black_counterclockwise_notarget_incorrect_or_nopressloc36_
173	2	4	205	1	1	0	0	5	0	0	421100005	block4_	flicker_	shape1_	black_	counterclockwise_	loc5_	notarget_	incorrect_or_nopress	block4_flicker_shape1_black_counterclockwise_notarget_incorrect_or_nopressloc5_
174	2	4	238	1	1	0	0	38	0	0	421100038	block4_	flicker_	shape1_	black_	counterclockwise_	loc38_	notarget_	incorrect_or_nopress	block4_flicker_shape1_black_counterclockwise_notarget_incorrect_or_nopressloc38_
175	2	4	204	2	2	0	0	4	0	0	422200004	block4_	flicker_	shape2_	white_	counterclockwise_	loc4_	notarget_	incorrect_or_nopress	block4_flicker_shape2_white_counterclockwise_notarget_incorrect_or_nopressloc4_
176	2	4	221	1	2	0	0	21	0	0	421200021	block4_	flicker_	shape1_	white_	counterclockwise_	loc21_	notarget_	incorrect_or_nopress	block4_flicker_shape1_white_counterclockwise_notarget_incorrect_or_nopressloc21_
177	2	4	263	1	1	0	0	63	0	0	421100063	block4_	flicker_	shape1_	black_	counterclockwise_	loc63_	notarget_	incorrect_or_nopress	block4_flicker_shape1_black_counterclockwise_notarget_incorrect_or_nopressloc63_
178	2	4	201	2	2	0	0	1	0	0	422200001	block4_	flicker_	shape2_	white_	counterclockwise_	loc1_	notarget_	incorrect_or_nopress	block4_flicker_shape2_white_counterclockwise_notarget_incorrect_or_nopressloc1_
179	2	4	244	2	2	0	0	44	0	0	422200044	block4_	flicker_	shape2_	white_	counterclockwise_	loc44_	notarget_	incorrect_or_nopress	block4_flicker_shape2_white_counterclockwise_notarget_incorrect_or_nopressloc44_
180	2	4	256	2	2	0	0	56	0	0	422200056	block4_	flicker_	shape2_	white_	counterclockwise_	loc56_	notarget_	incorrect_or_nopress	block4_flicker_shape2_white_counterclockwise_notarget_incorrect_or_nopressloc56_
181	2	4	237	1	1	0	0	37	0	0	421100037	block4_	flicker_	shape1_	black_	counterclockwise_	loc37_	notarget_	incorrect_or_nopress	block4_flicker_shape1_black_counterclockwise_notarget_incorrect_or_nopressloc37_
182	2	4	259	1	1	0	0	59	0	0	421100059	block4_	flicker_	shape1_	black_	counterclockwise_	loc59_	notarget_	incorrect_or_nopress	block4_flicker_shape1_black_counterclockwise_notarget_incorrect_or_nopressloc59_
183	2	4	251	2	1	0	0	51	0	0	422100051	block4_	flicker_	shape2_	black_	counterclockwise_	loc51_	notarget_	incorrect_or_nopress	block4_flicker_shape2_black_counterclockwise_notarget_incorrect_or_nopressloc51_
184	2	4	236	2	2	0	0	36	0	0	422200036	block4_	flicker_	shape2_	white_	counterclockwise_	loc36_	notarget_	incorrect_or_nopress	block4_flicker_shape2_white_counterclockwise_notarget_incorrect_or_nopressloc36_
185	2	4	255	2	1	0	0	55	0	0	422100055	block4_	flicker_	shape2_	black_	counterclockwise_	loc55_	notarget_	incorrect_or_nopress	block4_flicker_shape2_black_counterclockwise_notarget_incorrect_or_nopressloc55_
186	2	4	207	1	1	0	0	7	0	0	421100007	block4_	flicker_	shape1_	black_	counterclockwise_	loc7_	notarget_	incorrect_or_nopress	block4_flicker_shape1_black_counterclockwise_notarget_incorrect_or_nopressloc7_
187	2	4	221	1	1	0	0	21	0	0	421100021	block4_	flicker_	shape1_	black_	counterclockwise_	loc21_	notarget_	incorrect_or_nopress	block4_flicker_shape1_black_counterclockwise_notarget_incorrect_or_nopressloc21_
188	2	4	221	2	1	0	0	21	0	0	422100021	block4_	flicker_	shape2_	black_	counterclockwise_	loc21_	notarget_	incorrect_or_nopress	block4_flicker_shape2_black_counterclockwise_notarget_incorrect_or_nopressloc21_
189	2	4	254	2	2	0	0	54	0	0	422200054	block4_	flicker_	shape2_	white_	counterclockwise_	loc54_	notarget_	incorrect_or_nopress	block4_flicker_shape2_white_counterclockwise_notarget_incorrect_or_nopressloc54_
190	2	4	225	2	2	0	0	25	0	0	422200025	block4_	flicker_	shape2_	white_	counterclockwise_	loc25_	notarget_	incorrect_or_nopress	block4_flicker_shape2_white_counterclockwise_notarget_incorrect_or_nopressloc25_
191	2	4	251	1	1	0	0	51	0	0	421100051	block4_	flicker_	shape1_	black_	counterclockwise_	loc51_	notarget_	incorrect_or_nopress	block4_flicker_shape1_black_counterclockwise_notarget_incorrect_or_nopressloc51_
192	2	4	248	1	2	0	0	48	0	0	421200048	block4_	flicker_	shape1_	white_	counterclockwise_	loc48_	notarget_	incorrect_or_nopress	block4_flicker_shape1_white_counterclockwise_notarget_incorrect_or_nopressloc48_
193	2	4	234	1	1	0	0	34	0	0	421100034	block4_	flicker_	shape1_	black_	counterclockwise_	loc34_	notarget_	incorrect_or_nopress	block4_flicker_shape1_black_counterclockwise_notarget_incorrect_or_nopressloc34_
194	2	4	248	1	1	0	0	48	0	0	421100048	block4_	flicker_	shape1_	black_	counterclockwise_	loc48_	notarget_	incorrect_or_nopress	block4_flicker_shape1_black_counterclockwise_notarget_incorrect_or_nopressloc48_
195	2	4	218	2	1	0	0	18	0	0	422100018	block4_	flicker_	shape2_	black_	counterclockwise_	loc18_	notarget_	incorrect_or_nopress	block4_flicker_shape2_black_counterclockwise_notarget_incorrect_or_nopressloc18_
196	2	4	221	2	2	0	0	21	0	0	422200021	block4_	flicker_	shape2_	white_	counterclockwise_	loc21_	notarget_	incorrect_or_nopress	block4_flicker_shape2_white_counterclockwise_notarget_incorrect_or_nopressloc21_
197	2	4	264	1	2	0	0	64	0	0	421200064	block4_	flicker_	shape1_	white_	counterclockwise_	loc64_	notarget_	incorrect_or_nopress	block4_flicker_shape1_white_counterclockwise_notarget_incorrect_or_nopressloc64_
198	2	4	233	1	1	0	0	33	0	0	421100033	block4_	flicker_	shape1_	black_	counterclockwise_	loc33_	notarget_	incorrect_or_nopress	block4_flicker_shape1_black_counterclockwise_notarget_incorrect_or_nopressloc33_
199	2	4	227	1	2	0	0	27	0	0	421200027	block4_	flicker_	shape1_	white_	counterclockwise_	loc27_	notarget_	incorrect_or_nopress	block4_flicker_shape1_white_counterclockwise_notarget_incorrect_or_nopressloc27_
200	2	4	247	2	2	0	2	47	2	0	422202047	block4_	flicker_	shape2_	white_	counterclockwise_	loc47_	padding_	incorrect_or_nopress	block4_flicker_shape2_white_counterclockwise_padding_incorrect_or_nopressloc47_
201	2	4	257	1	1	0	2	57	2	0	421102057	block4_	flicker_	shape1_	black_	counterclockwise_	loc57_	padding_	incorrect_or_nopress	block4_flicker_shape1_black_counterclockwise_padding_incorrect_or_nopressloc57_
202	2	4	205	1	1	0	2	5	2	0	421102005	block4_	flicker_	shape1_	black_	counterclockwise_	loc5_	padding_	incorrect_or_nopress	block4_flicker_shape1_black_counterclockwise_padding_incorrect_or_nopressloc5_
203	2	4	264	2	1	0	2	64	2	0	422102064	block4_	flicker_	shape2_	black_	counterclockwise_	loc64_	padding_	incorrect_or_nopress	block4_flicker_shape2_black_counterclockwise_padding_incorrect_or_nopressloc64_
204	2	4	244	1	1	0	2	44	2	0	421102044	block4_	flicker_	shape1_	black_	counterclockwise_	loc44_	padding_	incorrect_or_nopress	block4_flicker_shape1_black_counterclockwise_padding_incorrect_or_nopressloc44_
205	2	4	208	1	2	0	2	8	2	0	421202008	block4_	flicker_	shape1_	white_	counterclockwise_	loc8_	padding_	incorrect_or_nopress	block4_flicker_shape1_white_counterclockwise_padding_incorrect_or_nopressloc8_
206	2	4	245	1	2	0	2	45	2	0	421202045	block4_	flicker_	shape1_	white_	counterclockwise_	loc45_	padding_	incorrect_or_nopress	block4_flicker_shape1_white_counterclockwise_padding_incorrect_or_nopressloc45_
207	2	4	251	2	2	0	1	51	1	0	422201051	block4_	flicker_	shape2_	white_	counterclockwise_	loc51_	istarget_	incorrect_or_nopress	block4_flicker_shape2_white_counterclockwise_istarget_incorrect_or_nopressloc51_
208	2	4	219	2	2	0	2	19	2	0	422202019	block4_	flicker_	shape2_	white_	counterclockwise_	loc19_	padding_	incorrect_or_nopress	block4_flicker_shape2_white_counterclockwise_padding_incorrect_or_nopressloc19_
209	2	4	260	1	2	0	2	60	2	0	421202060	block4_	flicker_	shape1_	white_	counterclockwise_	loc60_	padding_	incorrect_or_nopress	block4_flicker_shape1_white_counterclockwise_padding_incorrect_or_nopressloc60_
210	2	4	250	1	1	0	2	50	2	0	421102050	block4_	flicker_	shape1_	black_	counterclockwise_	loc50_	padding_	incorrect_or_nopress	block4_flicker_shape1_black_counterclockwise_padding_incorrect_or_nopressloc50_
211	2	4	241	2	2	0	2	41	2	1	422202141	block4_	flicker_	shape2_	white_	counterclockwise_	loc41_	padding_	correct_or_press	block4_flicker_shape2_white_counterclockwise_padding_correct_or_pressloc41_
212	2	4	243	2	1	0	2	43	2	0	422102043	block4_	flicker_	shape2_	black_	counterclockwise_	loc43_	padding_	incorrect_or_nopress	block4_flicker_shape2_black_counterclockwise_padding_incorrect_or_nopressloc43_
213	2	4	206	2	1	0	2	6	2	0	422102006	block4_	flicker_	shape2_	black_	counterclockwise_	loc6_	padding_	incorrect_or_nopress	block4_flicker_shape2_black_counterclockwise_padding_incorrect_or_nopressloc6_
214	2	4	212	1	2	0	2	12	2	0	421202012	block4_	flicker_	shape1_	white_	counterclockwise_	loc12_	padding_	incorrect_or_nopress	block4_flicker_shape1_white_counterclockwise_padding_incorrect_or_nopressloc12_
215	2	4	202	2	1	0	2	2	2	0	422102002	block4_	flicker_	shape2_	black_	counterclockwise_	loc2_	padding_	incorrect_or_nopress	block4_flicker_shape2_black_counterclockwise_padding_incorrect_or_nopressloc2_
216	2	4	258	1	1	0	0	58	0	0	421100058	block4_	flicker_	shape1_	black_	counterclockwise_	loc58_	notarget_	incorrect_or_nopress	block4_flicker_shape1_black_counterclockwise_notarget_incorrect_or_nopressloc58_
217	2	4	241	1	2	0	0	41	0	0	421200041	block4_	flicker_	shape1_	white_	counterclockwise_	loc41_	notarget_	incorrect_or_nopress	block4_flicker_shape1_white_counterclockwise_notarget_incorrect_or_nopressloc41_
218	2	4	232	1	2	0	0	32	0	0	421200032	block4_	flicker_	shape1_	white_	counterclockwise_	loc32_	notarget_	incorrect_or_nopress	block4_flicker_shape1_white_counterclockwise_notarget_incorrect_or_nopressloc32_
219	2	4	214	2	2	0	0	14	0	0	422200014	block4_	flicker_	shape2_	white_	counterclockwise_	loc14_	notarget_	incorrect_or_nopress	block4_flicker_shape2_white_counterclockwise_notarget_incorrect_or_nopressloc14_
220	2	4	225	1	1	0	0	25	0	0	421100025	block4_	flicker_	shape1_	black_	counterclockwise_	loc25_	notarget_	incorrect_or_nopress	block4_flicker_shape1_black_counterclockwise_notarget_incorrect_or_nopressloc25_
221	2	4	204	1	2	0	0	4	0	0	421200004	block4_	flicker_	shape1_	white_	counterclockwise_	loc4_	notarget_	incorrect_or_nopress	block4_flicker_shape1_white_counterclockwise_notarget_incorrect_or_nopressloc4_
222	2	4	263	2	2	0	0	63	0	0	422200063	block4_	flicker_	shape2_	white_	counterclockwise_	loc63_	notarget_	incorrect_or_nopress	block4_flicker_shape2_white_counterclockwise_notarget_incorrect_or_nopressloc63_
223	2	4	256	1	2	0	0	56	0	0	421200056	block4_	flicker_	shape1_	white_	counterclockwise_	loc56_	notarget_	incorrect_or_nopress	block4_flicker_shape1_white_counterclockwise_notarget_incorrect_or_nopressloc56_
224	2	4	223	1	2	0	0	23	0	0	421200023	block4_	flicker_	shape1_	white_	counterclockwise_	loc23_	notarget_	incorrect_or_nopress	block4_flicker_shape1_white_counterclockwise_notarget_incorrect_or_nopressloc23_
225	2	4	245	2	1	0	0	45	0	0	422100045	block4_	flicker_	shape2_	black_	counterclockwise_	loc45_	notarget_	incorrect_or_nopress	block4_flicker_shape2_black_counterclockwise_notarget_incorrect_or_nopressloc45_
226	2	4	240	1	1	0	0	40	0	0	421100040	block4_	flicker_	shape1_	black_	counterclockwise_	loc40_	notarget_	incorrect_or_nopress	block4_flicker_shape1_black_counterclockwise_notarget_incorrect_or_nopressloc40_
227	2	4	220	1	2	0	0	20	0	0	421200020	block4_	flicker_	shape1_	white_	counterclockwise_	loc20_	notarget_	incorrect_or_nopress	block4_flicker_shape1_white_counterclockwise_notarget_incorrect_or_nopressloc20_
228	2	4	262	1	2	0	0	62	0	0	421200062	block4_	flicker_	shape1_	white_	counterclockwise_	loc62_	notarget_	incorrect_or_nopress	block4_flicker_shape1_white_counterclockwise_notarget_incorrect_or_nopressloc62_
229	2	4	217	1	1	0	0	17	0	0	421100017	block4_	flicker_	shape1_	black_	counterclockwise_	loc17_	notarget_	incorrect_or_nopress	block4_flicker_shape1_black_counterclockwise_notarget_incorrect_or_nopressloc17_
230	2	4	243	1	2	0	0	43	0	0	421200043	block4_	flicker_	shape1_	white_	counterclockwise_	loc43_	notarget_	incorrect_or_nopress	block4_flicker_shape1_white_counterclockwise_notarget_incorrect_or_nopressloc43_
231	2	4	202	1	2	0	0	2	0	0	421200002	block4_	flicker_	shape1_	white_	counterclockwise_	loc2_	notarget_	incorrect_or_nopress	block4_flicker_shape1_white_counterclockwise_notarget_incorrect_or_nopressloc2_
232	2	4	207	2	2	0	0	7	0	0	422200007	block4_	flicker_	shape2_	white_	counterclockwise_	loc7_	notarget_	incorrect_or_nopress	block4_flicker_shape2_white_counterclockwise_notarget_incorrect_or_nopressloc7_
233	2	4	252	1	2	0	0	52	0	0	421200052	block4_	flicker_	shape1_	white_	counterclockwise_	loc52_	notarget_	incorrect_or_nopress	block4_flicker_shape1_white_counterclockwise_notarget_incorrect_or_nopressloc52_
234	2	4	239	2	1	0	0	39	0	0	422100039	block4_	flicker_	shape2_	black_	counterclockwise_	loc39_	notarget_	incorrect_or_nopress	block4_flicker_shape2_black_counterclockwise_notarget_incorrect_or_nopressloc39_
235	2	4	215	2	2	0	0	15	0	0	422200015	block4_	flicker_	shape2_	white_	counterclockwise_	loc15_	notarget_	incorrect_or_nopress	block4_flicker_shape2_white_counterclockwise_notarget_incorrect_or_nopressloc15_
236	2	4	202	2	2	0	0	2	0	0	422200002	block4_	flicker_	shape2_	white_	counterclockwise_	loc2_	notarget_	incorrect_or_nopress	block4_flicker_shape2_white_counterclockwise_notarget_incorrect_or_nopressloc2_
237	2	4	215	1	2	0	0	15	0	0	421200015	block4_	flicker_	shape1_	white_	counterclockwise_	loc15_	notarget_	incorrect_or_nopress	block4_flicker_shape1_white_counterclockwise_notarget_incorrect_or_nopressloc15_
238	2	4	210	2	1	0	0	10	0	0	422100010	block4_	flicker_	shape2_	black_	counterclockwise_	loc10_	notarget_	incorrect_or_nopress	block4_flicker_shape2_black_counterclockwise_notarget_incorrect_or_nopressloc10_
239	2	4	227	1	1	0	0	27	0	0	421100027	block4_	flicker_	shape1_	black_	counterclockwise_	loc27_	notarget_	incorrect_or_nopress	block4_flicker_shape1_black_counterclockwise_notarget_incorrect_or_nopressloc27_
240	2	4	201	1	1	0	0	1	0	0	421100001	block4_	flicker_	shape1_	black_	counterclockwise_	loc1_	notarget_	incorrect_or_nopress	block4_flicker_shape1_black_counterclockwise_notarget_incorrect_or_nopressloc1_
241	2	4	213	1	2	0	0	13	0	0	421200013	block4_	flicker_	shape1_	white_	counterclockwise_	loc13_	notarget_	incorrect_or_nopress	block4_flicker_shape1_white_counterclockwise_notarget_incorrect_or_nopressloc13_
242	2	4	243	1	1	0	0	43	0	0	421100043	block4_	flicker_	shape1_	black_	counterclockwise_	loc43_	notarget_	incorrect_or_nopress	block4_flicker_shape1_black_counterclockwise_notarget_incorrect_or_nopressloc43_
243	2	4	226	1	1	0	0	26	0	0	421100026	block4_	flicker_	shape1_	black_	counterclockwise_	loc26_	notarget_	incorrect_or_nopress	block4_flicker_shape1_black_counterclockwise_notarget_incorrect_or_nopressloc26_
244	2	4	249	2	2	0	0	49	0	0	422200049	block4_	flicker_	shape2_	white_	counterclockwise_	loc49_	notarget_	incorrect_or_nopress	block4_flicker_shape2_white_counterclockwise_notarget_incorrect_or_nopressloc49_
245	2	4	201	1	2	0	0	1	0	0	421200001	block4_	flicker_	shape1_	white_	counterclockwise_	loc1_	notarget_	incorrect_or_nopress	block4_flicker_shape1_white_counterclockwise_notarget_incorrect_or_nopressloc1_
246	2	4	208	2	2	0	0	8	0	0	422200008	block4_	flicker_	shape2_	white_	counterclockwise_	loc8_	notarget_	incorrect_or_nopress	block4_flicker_shape2_white_counterclockwise_notarget_incorrect_or_nopressloc8_
247	2	4	218	1	1	0	0	18	0	0	421100018	block4_	flicker_	shape1_	black_	counterclockwise_	loc18_	notarget_	incorrect_or_nopress	block4_flicker_shape1_black_counterclockwise_notarget_incorrect_or_nopressloc18_
248	2	4	235	1	1	0	0	35	0	0	421100035	block4_	flicker_	shape1_	black_	counterclockwise_	loc35_	notarget_	incorrect_or_nopress	block4_flicker_shape1_black_counterclockwise_notarget_incorrect_or_nopressloc35_
249	2	4	259	2	1	0	0	59	0	0	422100059	block4_	flicker_	shape2_	black_	counterclockwise_	loc59_	notarget_	incorrect_or_nopress	block4_flicker_shape2_black_counterclockwise_notarget_incorrect_or_nopressloc59_
250	2	4	210	1	2	0	0	10	0	0	421200010	block4_	flicker_	shape1_	white_	counterclockwise_	loc10_	notarget_	incorrect_or_nopress	block4_flicker_shape1_white_counterclockwise_notarget_incorrect_or_nopressloc10_
251	2	4	212	1	2	0	0	12	0	0	421200012	block4_	flicker_	shape1_	white_	counterclockwise_	loc12_	notarget_	incorrect_or_nopress	block4_flicker_shape1_white_counterclockwise_notarget_incorrect_or_nopressloc12_
252	2	4	222	2	1	0	0	22	0	0	422100022	block4_	flicker_	shape2_	black_	counterclockwise_	loc22_	notarget_	incorrect_or_nopress	block4_flicker_shape2_black_counterclockwise_notarget_incorrect_or_nopressloc22_
253	2	4	250	1	1	0	0	50	0	0	421100050	block4_	flicker_	shape1_	black_	counterclockwise_	loc50_	notarget_	incorrect_or_nopress	block4_flicker_shape1_black_counterclockwise_notarget_incorrect_or_nopressloc50_
254	2	4	253	2	2	0	0	53	0	0	422200053	block4_	flicker_	shape2_	white_	counterclockwise_	loc53_	notarget_	incorrect_or_nopress	block4_flicker_shape2_white_counterclockwise_notarget_incorrect_or_nopressloc53_
255	2	4	235	2	2	0	0	35	0	0	422200035	block4_	flicker_	shape2_	white_	counterclockwise_	loc35_	notarget_	incorrect_or_nopress	block4_flicker_shape2_white_counterclockwise_notarget_incorrect_or_nopressloc35_
256	2	4	257	1	1	0	0	57	0	0	421100057	block4_	flicker_	shape1_	black_	counterclockwise_	loc57_	notarget_	incorrect_or_nopress	block4_flicker_shape1_black_counterclockwise_notarget_incorrect_or_nopressloc57_
257	2	4	215	2	1	0	0	15	0	0	422100015	block4_	flicker_	shape2_	black_	counterclockwise_	loc15_	notarget_	incorrect_or_nopress	block4_flicker_shape2_black_counterclockwise_notarget_incorrect_or_nopressloc15_
258	2	4	253	1	2	0	0	53	0	0	421200053	block4_	flicker_	shape1_	white_	counterclockwise_	loc53_	notarget_	incorrect_or_nopress	block4_flicker_shape1_white_counterclockwise_notarget_incorrect_or_nopressloc53_
259	2	4	233	2	2	0	0	33	0	0	422200033	block4_	flicker_	shape2_	white_	counterclockwise_	loc33_	notarget_	incorrect_or_nopress	block4_flicker_shape2_white_counterclockwise_notarget_incorrect_or_nopressloc33_
260	2	4	253	1	1	0	0	53	0	0	421100053	block4_	flicker_	shape1_	black_	counterclockwise_	loc53_	notarget_	incorrect_or_nopress	block4_flicker_shape1_black_counterclockwise_notarget_incorrect_or_nopressloc53_
261	2	4	230	1	2	0	0	30	0	0	421200030	block4_	flicker_	shape1_	white_	counterclockwise_	loc30_	notarget_	incorrect_or_nopress	block4_flicker_shape1_white_counterclockwise_notarget_incorrect_or_nopressloc30_
262	2	4	252	2	2	0	0	52	0	0	422200052	block4_	flicker_	shape2_	white_	counterclockwise_	loc52_	notarget_	incorrect_or_nopress	block4_flicker_shape2_white_counterclockwise_notarget_incorrect_or_nopressloc52_
263	2	4	203	2	2	0	0	3	0	0	422200003	block4_	flicker_	shape2_	white_	counterclockwise_	loc3_	notarget_	incorrect_or_nopress	block4_flicker_shape2_white_counterclockwise_notarget_incorrect_or_nopressloc3_
264	2	4	204	1	1	0	0	4	0	0	421100004	block4_	flicker_	shape1_	black_	counterclockwise_	loc4_	notarget_	incorrect_or_nopress	block4_flicker_shape1_black_counterclockwise_notarget_incorrect_or_nopressloc4_
265	2	4	226	1	2	0	0	26	0	0	421200026	block4_	flicker_	shape1_	white_	counterclockwise_	loc26_	notarget_	incorrect_or_nopress	block4_flicker_shape1_white_counterclockwise_notarget_incorrect_or_nopressloc26_
266	2	4	228	1	1	0	0	28	0	0	421100028	block4_	flicker_	shape1_	black_	counterclockwise_	loc28_	notarget_	incorrect_or_nopress	block4_flicker_shape1_black_counterclockwise_notarget_incorrect_or_nopressloc28_
267	2	4	264	2	2	0	0	64	0	0	422200064	block4_	flicker_	shape2_	white_	counterclockwise_	loc64_	notarget_	incorrect_or_nopress	block4_flicker_shape2_white_counterclockwise_notarget_incorrect_or_nopressloc64_
268	2	4	250	1	2	0	0	50	0	0	421200050	block4_	flicker_	shape1_	white_	counterclockwise_	loc50_	notarget_	incorrect_or_nopress	block4_flicker_shape1_white_counterclockwise_notarget_incorrect_or_nopressloc50_
269	2	4	249	1	2	0	0	49	0	0	421200049	block4_	flicker_	shape1_	white_	counterclockwise_	loc49_	notarget_	incorrect_or_nopress	block4_flicker_shape1_white_counterclockwise_notarget_incorrect_or_nopressloc49_
270	2	4	229	1	1	0	0	29	0	0	421100029	block4_	flicker_	shape1_	black_	counterclockwise_	loc29_	notarget_	incorrect_or_nopress	block4_flicker_shape1_black_counterclockwise_notarget_incorrect_or_nopressloc29_
271	2	4	260	1	1	0	0	60	0	0	421100060	block4_	flicker_	shape1_	black_	counterclockwise_	loc60_	notarget_	incorrect_or_nopress	block4_flicker_shape1_black_counterclockwise_notarget_incorrect_or_nopressloc60_
272	2	4	241	1	1	0	0	41	0	0	421100041	block4_	flicker_	shape1_	black_	counterclockwise_	loc41_	notarget_	incorrect_or_nopress	block4_flicker_shape1_black_counterclockwise_notarget_incorrect_or_nopressloc41_
273	2	4	257	2	1	0	0	57	0	0	422100057	block4_	flicker_	shape2_	black_	counterclockwise_	loc57_	notarget_	incorrect_or_nopress	block4_flicker_shape2_black_counterclockwise_notarget_incorrect_or_nopressloc57_
274	2	4	222	2	2	0	0	22	0	0	422200022	block4_	flicker_	shape2_	white_	counterclockwise_	loc22_	notarget_	incorrect_or_nopress	block4_flicker_shape2_white_counterclockwise_notarget_incorrect_or_nopressloc22_
275	2	4	218	1	2	0	0	18	0	0	421200018	block4_	flicker_	shape1_	white_	counterclockwise_	loc18_	notarget_	incorrect_or_nopress	block4_flicker_shape1_white_counterclockwise_notarget_incorrect_or_nopressloc18_
276	2	4	226	2	2	0	0	26	0	0	422200026	block4_	flicker_	shape2_	white_	counterclockwise_	loc26_	notarget_	incorrect_or_nopress	block4_flicker_shape2_white_counterclockwise_notarget_incorrect_or_nopressloc26_
277	2	4	223	1	1	0	0	23	0	0	421100023	block4_	flicker_	shape1_	black_	counterclockwise_	loc23_	notarget_	incorrect_or_nopress	block4_flicker_shape1_black_counterclockwise_notarget_incorrect_or_nopressloc23_
278	2	4	217	2	1	0	0	17	0	0	422100017	block4_	flicker_	shape2_	black_	counterclockwise_	loc17_	notarget_	incorrect_or_nopress	block4_flicker_shape2_black_counterclockwise_notarget_incorrect_or_nopressloc17_
279	2	4	213	2	2	0	0	13	0	0	422200013	block4_	flicker_	shape2_	white_	counterclockwise_	loc13_	notarget_	incorrect_or_nopress	block4_flicker_shape2_white_counterclockwise_notarget_incorrect_or_nopressloc13_
280	2	4	216	1	1	0	0	16	0	0	421100016	block4_	flicker_	shape1_	black_	counterclockwise_	loc16_	notarget_	incorrect_or_nopress	block4_flicker_shape1_black_counterclockwise_notarget_incorrect_or_nopressloc16_
281	2	4	241	2	2	0	0	41	0	0	422200041	block4_	flicker_	shape2_	white_	counterclockwise_	loc41_	notarget_	incorrect_or_nopress	block4_flicker_shape2_white_counterclockwise_notarget_incorrect_or_nopressloc41_
282	2	4	231	2	1	0	0	31	0	0	422100031	block4_	flicker_	shape2_	black_	counterclockwise_	loc31_	notarget_	incorrect_or_nopress	block4_flicker_shape2_black_counterclockwise_notarget_incorrect_or_nopressloc31_
283	2	4	232	2	2	0	0	32	0	0	422200032	block4_	flicker_	shape2_	white_	counterclockwise_	loc32_	notarget_	incorrect_or_nopress	block4_flicker_shape2_white_counterclockwise_notarget_incorrect_or_nopressloc32_
284	2	4	223	2	2	0	0	23	0	0	422200023	block4_	flicker_	shape2_	white_	counterclockwise_	loc23_	notarget_	incorrect_or_nopress	block4_flicker_shape2_white_counterclockwise_notarget_incorrect_or_nopressloc23_
285	2	4	212	2	2	0	0	12	0	0	422200012	block4_	flicker_	shape2_	white_	counterclockwise_	loc12_	notarget_	incorrect_or_nopress	block4_flicker_shape2_white_counterclockwise_notarget_incorrect_or_nopressloc12_
286	2	4	239	2	2	0	0	39	0	0	422200039	block4_	flicker_	shape2_	white_	counterclockwise_	loc39_	notarget_	incorrect_or_nopress	block4_flicker_shape2_white_counterclockwise_notarget_incorrect_or_nopressloc39_
287	2	4	233	1	2	0	2	33	2	0	421202033	block4_	flicker_	shape1_	white_	counterclockwise_	loc33_	padding_	incorrect_or_nopress	block4_flicker_shape1_white_counterclockwise_padding_incorrect_or_nopressloc33_
288	2	4	263	1	1	0	2	63	2	0	421102063	block4_	flicker_	shape1_	black_	counterclockwise_	loc63_	padding_	incorrect_or_nopress	block4_flicker_shape1_black_counterclockwise_padding_incorrect_or_nopressloc63_
289	2	4	244	1	1	0	2	44	2	0	421102044	block4_	flicker_	shape1_	black_	counterclockwise_	loc44_	padding_	incorrect_or_nopress	block4_flicker_shape1_black_counterclockwise_padding_incorrect_or_nopressloc44_
290	2	4	258	2	1	0	2	58	2	0	422102058	block4_	flicker_	shape2_	black_	counterclockwise_	loc58_	padding_	incorrect_or_nopress	block4_flicker_shape2_black_counterclockwise_padding_incorrect_or_nopressloc58_
291	2	4	254	1	2	0	2	54	2	0	421202054	block4_	flicker_	shape1_	white_	counterclockwise_	loc54_	padding_	incorrect_or_nopress	block4_flicker_shape1_white_counterclockwise_padding_incorrect_or_nopressloc54_
292	2	4	207	2	2	0	2	7	2	0	422202007	block4_	flicker_	shape2_	white_	counterclockwise_	loc7_	padding_	incorrect_or_nopress	block4_flicker_shape2_white_counterclockwise_padding_incorrect_or_nopressloc7_
293	2	4	260	2	1	0	2	60	2	0	422102060	block4_	flicker_	shape2_	black_	counterclockwise_	loc60_	padding_	incorrect_or_nopress	block4_flicker_shape2_black_counterclockwise_padding_incorrect_or_nopressloc60_
294	2	4	262	2	1	0	1	62	1	0	422101062	block4_	flicker_	shape2_	black_	counterclockwise_	loc62_	istarget_	incorrect_or_nopress	block4_flicker_shape2_black_counterclockwise_istarget_incorrect_or_nopressloc62_
295	2	4	225	2	2	0	2	25	2	0	422202025	block4_	flicker_	shape2_	white_	counterclockwise_	loc25_	padding_	incorrect_or_nopress	block4_flicker_shape2_white_counterclockwise_padding_incorrect_or_nopressloc25_
296	2	4	241	2	2	0	2	41	2	1	422202141	block4_	flicker_	shape2_	white_	counterclockwise_	loc41_	padding_	correct_or_press	block4_flicker_shape2_white_counterclockwise_padding_correct_or_pressloc41_
297	2	4	264	1	1	0	2	64	2	1	421102164	block4_	flicker_	shape1_	black_	counterclockwise_	loc64_	padding_	correct_or_press	block4_flicker_shape1_black_counterclockwise_padding_correct_or_pressloc64_
298	2	4	201	2	2	0	2	1	2	0	422202001	block4_	flicker_	shape2_	white_	counterclockwise_	loc1_	padding_	incorrect_or_nopress	block4_flicker_shape2_white_counterclockwise_padding_incorrect_or_nopressloc1_
299	2	4	216	1	2	0	2	16	2	0	421202016	block4_	flicker_	shape1_	white_	counterclockwise_	loc16_	padding_	incorrect_or_nopress	block4_flicker_shape1_white_counterclockwise_padding_incorrect_or_nopressloc16_
300	2	4	218	1	2	0	2	18	2	0	421202018	block4_	flicker_	shape1_	white_	counterclockwise_	loc18_	padding_	incorrect_or_nopress	block4_flicker_shape1_white_counterclockwise_padding_incorrect_or_nopressloc18_
301	2	4	256	2	1	0	2	56	2	0	422102056	block4_	flicker_	shape2_	black_	counterclockwise_	loc56_	padding_	incorrect_or_nopress	block4_flicker_shape2_black_counterclockwise_padding_incorrect_or_nopressloc56_
302	2	4	251	1	1	0	2	51	2	0	421102051	block4_	flicker_	shape1_	black_	counterclockwise_	loc51_	padding_	incorrect_or_nopress	block4_flicker_shape1_black_counterclockwise_padding_incorrect_or_nopressloc51_
303	2	4	233	2	1	0	0	33	0	0	422100033	block4_	flicker_	shape2_	black_	counterclockwise_	loc33_	notarget_	incorrect_or_nopress	block4_flicker_shape2_black_counterclockwise_notarget_incorrect_or_nopressloc33_
304	2	4	210	1	1	0	0	10	0	0	421100010	block4_	flicker_	shape1_	black_	counterclockwise_	loc10_	notarget_	incorrect_or_nopress	block4_flicker_shape1_black_counterclockwise_notarget_incorrect_or_nopressloc10_
305	2	4	252	2	1	0	0	52	0	0	422100052	block4_	flicker_	shape2_	black_	counterclockwise_	loc52_	notarget_	incorrect_or_nopress	block4_flicker_shape2_black_counterclockwise_notarget_incorrect_or_nopressloc52_
306	2	4	234	1	2	0	0	34	0	0	421200034	block4_	flicker_	shape1_	white_	counterclockwise_	loc34_	notarget_	incorrect_or_nopress	block4_flicker_shape1_white_counterclockwise_notarget_incorrect_or_nopressloc34_
307	2	4	210	2	2	0	0	10	0	0	422200010	block4_	flicker_	shape2_	white_	counterclockwise_	loc10_	notarget_	incorrect_or_nopress	block4_flicker_shape2_white_counterclockwise_notarget_incorrect_or_nopressloc10_
308	2	4	248	2	2	0	0	48	0	0	422200048	block4_	flicker_	shape2_	white_	counterclockwise_	loc48_	notarget_	incorrect_or_nopress	block4_flicker_shape2_white_counterclockwise_notarget_incorrect_or_nopressloc48_
309	2	4	235	1	2	0	0	35	0	0	421200035	block4_	flicker_	shape1_	white_	counterclockwise_	loc35_	notarget_	incorrect_or_nopress	block4_flicker_shape1_white_counterclockwise_notarget_incorrect_or_nopressloc35_
310	2	4	229	2	2	0	0	29	0	0	422200029	block4_	flicker_	shape2_	white_	counterclockwise_	loc29_	notarget_	incorrect_or_nopress	block4_flicker_shape2_white_counterclockwise_notarget_incorrect_or_nopressloc29_
311	2	4	264	1	1	0	0	64	0	0	421100064	block4_	flicker_	shape1_	black_	counterclockwise_	loc64_	notarget_	incorrect_or_nopress	block4_flicker_shape1_black_counterclockwise_notarget_incorrect_or_nopressloc64_
312	2	4	209	1	1	0	0	9	0	0	421100009	block4_	flicker_	shape1_	black_	counterclockwise_	loc9_	notarget_	incorrect_or_nopress	block4_flicker_shape1_black_counterclockwise_notarget_incorrect_or_nopressloc9_
313	2	4	214	1	2	0	0	14	0	0	421200014	block4_	flicker_	shape1_	white_	counterclockwise_	loc14_	notarget_	incorrect_or_nopress	block4_flicker_shape1_white_counterclockwise_notarget_incorrect_or_nopressloc14_
314	2	4	211	2	2	0	0	11	0	0	422200011	block4_	flicker_	shape2_	white_	counterclockwise_	loc11_	notarget_	incorrect_or_nopress	block4_flicker_shape2_white_counterclockwise_notarget_incorrect_or_nopressloc11_
315	2	4	219	1	1	0	0	19	0	0	421100019	block4_	flicker_	shape1_	black_	counterclockwise_	loc19_	notarget_	incorrect_or_nopress	block4_flicker_shape1_black_counterclockwise_notarget_incorrect_or_nopressloc19_
316	2	4	212	1	1	0	0	12	0	0	421100012	block4_	flicker_	shape1_	black_	counterclockwise_	loc12_	notarget_	incorrect_or_nopress	block4_flicker_shape1_black_counterclockwise_notarget_incorrect_or_nopressloc12_
317	2	4	247	1	1	0	0	47	0	0	421100047	block4_	flicker_	shape1_	black_	counterclockwise_	loc47_	notarget_	incorrect_or_nopress	block4_flicker_shape1_black_counterclockwise_notarget_incorrect_or_nopressloc47_
318	2	4	244	2	1	0	0	44	0	0	422100044	block4_	flicker_	shape2_	black_	counterclockwise_	loc44_	notarget_	incorrect_or_nopress	block4_flicker_shape2_black_counterclockwise_notarget_incorrect_or_nopressloc44_
319	2	4	249	1	1	0	0	49	0	0	421100049	block4_	flicker_	shape1_	black_	counterclockwise_	loc49_	notarget_	incorrect_or_nopress	block4_flicker_shape1_black_counterclockwise_notarget_incorrect_or_nopressloc49_
320	2	4	247	2	2	0	0	47	0	0	422200047	block4_	flicker_	shape2_	white_	counterclockwise_	loc47_	notarget_	incorrect_or_nopress	block4_flicker_shape2_white_counterclockwise_notarget_incorrect_or_nopressloc47_
321	2	4	249	2	1	0	0	49	0	0	422100049	block4_	flicker_	shape2_	black_	counterclockwise_	loc49_	notarget_	incorrect_or_nopress	block4_flicker_shape2_black_counterclockwise_notarget_incorrect_or_nopressloc49_
322	2	4	231	1	2	0	0	31	0	0	421200031	block4_	flicker_	shape1_	white_	counterclockwise_	loc31_	notarget_	incorrect_or_nopress	block4_flicker_shape1_white_counterclockwise_notarget_incorrect_or_nopressloc31_
323	2	4	202	1	1	0	0	2	0	0	421100002	block4_	flicker_	shape1_	black_	counterclockwise_	loc2_	notarget_	incorrect_or_nopress	block4_flicker_shape1_black_counterclockwise_notarget_incorrect_or_nopressloc2_
324	2	4	248	2	1	0	0	48	0	0	422100048	block4_	flicker_	shape2_	black_	counterclockwise_	loc48_	notarget_	incorrect_or_nopress	block4_flicker_shape2_black_counterclockwise_notarget_incorrect_or_nopressloc48_
325	2	4	239	1	1	0	0	39	0	0	421100039	block4_	flicker_	shape1_	black_	counterclockwise_	loc39_	notarget_	incorrect_or_nopress	block4_flicker_shape1_black_counterclockwise_notarget_incorrect_or_nopressloc39_
326	2	4	240	2	2	0	0	40	0	0	422200040	block4_	flicker_	shape2_	white_	counterclockwise_	loc40_	notarget_	incorrect_or_nopress	block4_flicker_shape2_white_counterclockwise_notarget_incorrect_or_nopressloc40_
327	2	4	263	2	1	0	0	63	0	0	422100063	block4_	flicker_	shape2_	black_	counterclockwise_	loc63_	notarget_	incorrect_or_nopress	block4_flicker_shape2_black_counterclockwise_notarget_incorrect_or_nopressloc63_
328	2	4	237	1	2	0	0	37	0	0	421200037	block4_	flicker_	shape1_	white_	counterclockwise_	loc37_	notarget_	incorrect_or_nopress	block4_flicker_shape1_white_counterclockwise_notarget_incorrect_or_nopressloc37_
329	2	4	264	2	1	0	0	64	0	0	422100064	block4_	flicker_	shape2_	black_	counterclockwise_	loc64_	notarget_	incorrect_or_nopress	block4_flicker_shape2_black_counterclockwise_notarget_incorrect_or_nopressloc64_
330	2	4	220	2	2	0	0	20	0	0	422200020	block4_	flicker_	shape2_	white_	counterclockwise_	loc20_	notarget_	incorrect_or_nopress	block4_flicker_shape2_white_counterclockwise_notarget_incorrect_or_nopressloc20_
331	2	4	207	2	1	0	0	7	0	0	422100007	block4_	flicker_	shape2_	black_	counterclockwise_	loc7_	notarget_	incorrect_or_nopress	block4_flicker_shape2_black_counterclockwise_notarget_incorrect_or_nopressloc7_
332	2	4	238	2	2	0	0	38	0	0	422200038	block4_	flicker_	shape2_	white_	counterclockwise_	loc38_	notarget_	incorrect_or_nopress	block4_flicker_shape2_white_counterclockwise_notarget_incorrect_or_nopressloc38_
333	2	4	240	1	2	0	0	40	0	0	421200040	block4_	flicker_	shape1_	white_	counterclockwise_	loc40_	notarget_	incorrect_or_nopress	block4_flicker_shape1_white_counterclockwise_notarget_incorrect_or_nopressloc40_
334	2	4	214	1	1	0	0	14	0	0	421100014	block4_	flicker_	shape1_	black_	counterclockwise_	loc14_	notarget_	incorrect_or_nopress	block4_flicker_shape1_black_counterclockwise_notarget_incorrect_or_nopressloc14_
335	2	4	258	1	2	0	0	58	0	0	421200058	block4_	flicker_	shape1_	white_	counterclockwise_	loc58_	notarget_	incorrect_or_nopress	block4_flicker_shape1_white_counterclockwise_notarget_incorrect_or_nopressloc58_
336	2	4	211	2	1	0	0	11	0	0	422100011	block4_	flicker_	shape2_	black_	counterclockwise_	loc11_	notarget_	incorrect_or_nopress	block4_flicker_shape2_black_counterclockwise_notarget_incorrect_or_nopressloc11_
337	2	4	261	1	1	0	0	61	0	0	421100061	block4_	flicker_	shape1_	black_	counterclockwise_	loc61_	notarget_	incorrect_or_nopress	block4_flicker_shape1_black_counterclockwise_notarget_incorrect_or_nopressloc61_
338	2	4	258	2	1	0	0	58	0	0	422100058	block4_	flicker_	shape2_	black_	counterclockwise_	loc58_	notarget_	incorrect_or_nopress	block4_flicker_shape2_black_counterclockwise_notarget_incorrect_or_nopressloc58_
339	2	4	256	2	1	0	0	56	0	0	422100056	block4_	flicker_	shape2_	black_	counterclockwise_	loc56_	notarget_	incorrect_or_nopress	block4_flicker_shape2_black_counterclockwise_notarget_incorrect_or_nopressloc56_
340	2	4	233	1	2	0	0	33	0	0	421200033	block4_	flicker_	shape1_	white_	counterclockwise_	loc33_	notarget_	incorrect_or_nopress	block4_flicker_shape1_white_counterclockwise_notarget_incorrect_or_nopressloc33_
341	2	4	256	1	1	0	0	56	0	0	421100056	block4_	flicker_	shape1_	black_	counterclockwise_	loc56_	notarget_	incorrect_or_nopress	block4_flicker_shape1_black_counterclockwise_notarget_incorrect_or_nopressloc56_
342	2	4	204	2	1	0	0	4	0	0	422100004	block4_	flicker_	shape2_	black_	counterclockwise_	loc4_	notarget_	incorrect_or_nopress	block4_flicker_shape2_black_counterclockwise_notarget_incorrect_or_nopressloc4_
343	2	4	207	1	2	0	0	7	0	0	421200007	block4_	flicker_	shape1_	white_	counterclockwise_	loc7_	notarget_	incorrect_or_nopress	block4_flicker_shape1_white_counterclockwise_notarget_incorrect_or_nopressloc7_
344	2	4	250	2	1	0	0	50	0	0	422100050	block4_	flicker_	shape2_	black_	counterclockwise_	loc50_	notarget_	incorrect_or_nopress	block4_flicker_shape2_black_counterclockwise_notarget_incorrect_or_nopressloc50_
345	2	4	226	2	1	0	0	26	0	0	422100026	block4_	flicker_	shape2_	black_	counterclockwise_	loc26_	notarget_	incorrect_or_nopress	block4_flicker_shape2_black_counterclockwise_notarget_incorrect_or_nopressloc26_
346	2	4	213	1	1	0	0	13	0	0	421100013	block4_	flicker_	shape1_	black_	counterclockwise_	loc13_	notarget_	incorrect_or_nopress	block4_flicker_shape1_black_counterclockwise_notarget_incorrect_or_nopressloc13_
347	2	4	257	2	2	0	0	57	0	0	422200057	block4_	flicker_	shape2_	white_	counterclockwise_	loc57_	notarget_	incorrect_or_nopress	block4_flicker_shape2_white_counterclockwise_notarget_incorrect_or_nopressloc57_
348	2	4	206	1	1	0	0	6	0	0	421100006	block4_	flicker_	shape1_	black_	counterclockwise_	loc6_	notarget_	incorrect_or_nopress	block4_flicker_shape1_black_counterclockwise_notarget_incorrect_or_nopressloc6_
349	2	4	217	2	2	0	0	17	0	0	422200017	block4_	flicker_	shape2_	white_	counterclockwise_	loc17_	notarget_	incorrect_or_nopress	block4_flicker_shape2_white_counterclockwise_notarget_incorrect_or_nopressloc17_
350	2	4	203	1	2	0	0	3	0	0	421200003	block4_	flicker_	shape1_	white_	counterclockwise_	loc3_	notarget_	incorrect_or_nopress	block4_flicker_shape1_white_counterclockwise_notarget_incorrect_or_nopressloc3_
351	2	4	229	1	2	0	0	29	0	0	421200029	block4_	flicker_	shape1_	white_	counterclockwise_	loc29_	notarget_	incorrect_or_nopress	block4_flicker_shape1_white_counterclockwise_notarget_incorrect_or_nopressloc29_
352	2	4	253	2	1	0	0	53	0	0	422100053	block4_	flicker_	shape2_	black_	counterclockwise_	loc53_	notarget_	incorrect_or_nopress	block4_flicker_shape2_black_counterclockwise_notarget_incorrect_or_nopressloc53_
353	2	4	225	1	2	0	0	25	0	0	421200025	block4_	flicker_	shape1_	white_	counterclockwise_	loc25_	notarget_	incorrect_or_nopress	block4_flicker_shape1_white_counterclockwise_notarget_incorrect_or_nopressloc25_
354	2	4	213	2	1	0	0	13	0	0	422100013	block4_	flicker_	shape2_	black_	counterclockwise_	loc13_	notarget_	incorrect_or_nopress	block4_flicker_shape2_black_counterclockwise_notarget_incorrect_or_nopressloc13_
355	2	4	209	2	1	0	0	9	0	0	422100009	block4_	flicker_	shape2_	black_	counterclockwise_	loc9_	notarget_	incorrect_or_nopress	block4_flicker_shape2_black_counterclockwise_notarget_incorrect_or_nopressloc9_
356	2	4	236	1	2	0	0	36	0	0	421200036	block4_	flicker_	shape1_	white_	counterclockwise_	loc36_	notarget_	incorrect_or_nopress	block4_flicker_shape1_white_counterclockwise_notarget_incorrect_or_nopressloc36_
357	2	4	228	1	2	0	0	28	0	0	421200028	block4_	flicker_	shape1_	white_	counterclockwise_	loc28_	notarget_	incorrect_or_nopress	block4_flicker_shape1_white_counterclockwise_notarget_incorrect_or_nopressloc28_
358	2	4	208	2	1	0	0	8	0	0	422100008	block4_	flicker_	shape2_	black_	counterclockwise_	loc8_	notarget_	incorrect_or_nopress	block4_flicker_shape2_black_counterclockwise_notarget_incorrect_or_nopressloc8_
359	2	4	241	2	1	0	0	41	0	0	422100041	block4_	flicker_	shape2_	black_	counterclockwise_	loc41_	notarget_	incorrect_or_nopress	block4_flicker_shape2_black_counterclockwise_notarget_incorrect_or_nopressloc41_
360	2	4	232	1	1	0	0	32	0	0	421100032	block4_	flicker_	shape1_	black_	counterclockwise_	loc32_	notarget_	incorrect_or_nopress	block4_flicker_shape1_black_counterclockwise_notarget_incorrect_or_nopressloc32_
361	2	4	224	2	2	0	0	24	0	0	422200024	block4_	flicker_	shape2_	white_	counterclockwise_	loc24_	notarget_	incorrect_or_nopress	block4_flicker_shape2_white_counterclockwise_notarget_incorrect_or_nopressloc24_
362	2	4	263	1	2	0	0	63	0	0	421200063	block4_	flicker_	shape1_	white_	counterclockwise_	loc63_	notarget_	incorrect_or_nopress	block4_flicker_shape1_white_counterclockwise_notarget_incorrect_or_nopressloc63_
363	2	4	217	1	2	0	0	17	0	0	421200017	block4_	flicker_	shape1_	white_	counterclockwise_	loc17_	notarget_	incorrect_or_nopress	block4_flicker_shape1_white_counterclockwise_notarget_incorrect_or_nopressloc17_
364	2	4	205	2	1	0	0	5	0	0	422100005	block4_	flicker_	shape2_	black_	counterclockwise_	loc5_	notarget_	incorrect_or_nopress	block4_flicker_shape2_black_counterclockwise_notarget_incorrect_or_nopressloc5_
365	2	4	202	2	1	0	0	2	0	0	422100002	block4_	flicker_	shape2_	black_	counterclockwise_	loc2_	notarget_	incorrect_or_nopress	block4_flicker_shape2_black_counterclockwise_notarget_incorrect_or_nopressloc2_
366	2	4	262	2	2	0	0	62	0	0	422200062	block4_	flicker_	shape2_	white_	counterclockwise_	loc62_	notarget_	incorrect_or_nopress	block4_flicker_shape2_white_counterclockwise_notarget_incorrect_or_nopressloc62_
367	2	4	216	2	1	0	0	16	0	0	422100016	block4_	flicker_	shape2_	black_	counterclockwise_	loc16_	notarget_	incorrect_or_nopress	block4_flicker_shape2_black_counterclockwise_notarget_incorrect_or_nopressloc16_
368	2	4	203	2	1	0	0	3	0	0	422100003	block4_	flicker_	shape2_	black_	counterclockwise_	loc3_	notarget_	incorrect_or_nopress	block4_flicker_shape2_black_counterclockwise_notarget_incorrect_or_nopressloc3_
369	2	4	232	2	1	0	0	32	0	0	422100032	block4_	flicker_	shape2_	black_	counterclockwise_	loc32_	notarget_	incorrect_or_nopress	block4_flicker_shape2_black_counterclockwise_notarget_incorrect_or_nopressloc32_
370	2	4	230	1	1	0	0	30	0	0	421100030	block4_	flicker_	shape1_	black_	counterclockwise_	loc30_	notarget_	incorrect_or_nopress	block4_flicker_shape1_black_counterclockwise_notarget_incorrect_or_nopressloc30_
371	2	4	208	1	1	0	0	8	0	0	421100008	block4_	flicker_	shape1_	black_	counterclockwise_	loc8_	notarget_	incorrect_or_nopress	block4_flicker_shape1_black_counterclockwise_notarget_incorrect_or_nopressloc8_
372	2	4	243	2	2	0	0	43	0	0	422200043	block4_	flicker_	shape2_	white_	counterclockwise_	loc43_	notarget_	incorrect_or_nopress	block4_flicker_shape2_white_counterclockwise_notarget_incorrect_or_nopressloc43_
373	2	4	205	1	2	0	0	5	0	0	421200005	block4_	flicker_	shape1_	white_	counterclockwise_	loc5_	notarget_	incorrect_or_nopress	block4_flicker_shape1_white_counterclockwise_notarget_incorrect_or_nopressloc5_
374	2	4	219	1	2	0	0	19	0	0	421200019	block4_	flicker_	shape1_	white_	counterclockwise_	loc19_	notarget_	incorrect_or_nopress	block4_flicker_shape1_white_counterclockwise_notarget_incorrect_or_nopressloc19_
375	2	4	216	1	2	0	0	16	0	0	421200016	block4_	flicker_	shape1_	white_	counterclockwise_	loc16_	notarget_	incorrect_or_nopress	block4_flicker_shape1_white_counterclockwise_notarget_incorrect_or_nopressloc16_
376	2	4	234	2	1	0	0	34	0	0	422100034	block4_	flicker_	shape2_	black_	counterclockwise_	loc34_	notarget_	incorrect_or_nopress	block4_flicker_shape2_black_counterclockwise_notarget_incorrect_or_nopressloc34_
377	2	4	240	2	1	0	0	40	0	0	422100040	block4_	flicker_	shape2_	black_	counterclockwise_	loc40_	notarget_	incorrect_or_nopress	block4_flicker_shape2_black_counterclockwise_notarget_incorrect_or_nopressloc40_
378	2	4	245	1	2	0	0	45	0	0	421200045	block4_	flicker_	shape1_	white_	counterclockwise_	loc45_	notarget_	incorrect_or_nopress	block4_flicker_shape1_white_counterclockwise_notarget_incorrect_or_nopressloc45_
379	2	4	259	2	2	0	0	59	0	0	422200059	block4_	flicker_	shape2_	white_	counterclockwise_	loc59_	notarget_	incorrect_or_nopress	block4_flicker_shape2_white_counterclockwise_notarget_incorrect_or_nopressloc59_
380	2	4	215	1	1	0	0	15	0	0	421100015	block4_	flicker_	shape1_	black_	counterclockwise_	loc15_	notarget_	incorrect_or_nopress	block4_flicker_shape1_black_counterclockwise_notarget_incorrect_or_nopressloc15_
381	2	4	246	2	1	0	0	46	0	0	422100046	block4_	flicker_	shape2_	black_	counterclockwise_	loc46_	notarget_	incorrect_or_nopress	block4_flicker_shape2_black_counterclockwise_notarget_incorrect_or_nopressloc46_
382	2	4	203	1	1	0	0	3	0	0	421100003	block4_	flicker_	shape1_	black_	counterclockwise_	loc3_	notarget_	incorrect_or_nopress	block4_flicker_shape1_black_counterclockwise_notarget_incorrect_or_nopressloc3_
383	2	4	258	2	2	0	0	58	0	0	422200058	block4_	flicker_	shape2_	white_	counterclockwise_	loc58_	notarget_	incorrect_or_nopress	block4_flicker_shape2_white_counterclockwise_notarget_incorrect_or_nopressloc58_
384	2	4	212	2	1	0	0	12	0	0	422100012	block4_	flicker_	shape2_	black_	counterclockwise_	loc12_	notarget_	incorrect_or_nopress	block4_flicker_shape2_black_counterclockwise_notarget_incorrect_or_nopressloc12_
385	2	4	262	2	1	0	0	62	0	0	422100062	block4_	flicker_	shape2_	black_	counterclockwise_	loc62_	notarget_	incorrect_or_nopress	block4_flicker_shape2_black_counterclockwise_notarget_incorrect_or_nopressloc62_
386	2	4	259	1	2	0	0	59	0	0	421200059	block4_	flicker_	shape1_	white_	counterclockwise_	loc59_	notarget_	incorrect_or_nopress	block4_flicker_shape1_white_counterclockwise_notarget_incorrect_or_nopressloc59_
387	2	4	234	2	2	0	0	34	0	0	422200034	block4_	flicker_	shape2_	white_	counterclockwise_	loc34_	notarget_	incorrect_or_nopress	block4_flicker_shape2_white_counterclockwise_notarget_incorrect_or_nopressloc34_
388	2	4	211	1	2	0	0	11	0	0	421200011	block4_	flicker_	shape1_	white_	counterclockwise_	loc11_	notarget_	incorrect_or_nopress	block4_flicker_shape1_white_counterclockwise_notarget_incorrect_or_nopressloc11_
389	2	4	260	2	2	0	0	60	0	0	422200060	block4_	flicker_	shape2_	white_	counterclockwise_	loc60_	notarget_	incorrect_or_nopress	block4_flicker_shape2_white_counterclockwise_notarget_incorrect_or_nopressloc60_
390	2	4	257	1	2	0	0	57	0	0	421200057	block4_	flicker_	shape1_	white_	counterclockwise_	loc57_	notarget_	incorrect_or_nopress	block4_flicker_shape1_white_counterclockwise_notarget_incorrect_or_nopressloc57_
391	2	4	206	1	2	0	0	6	0	0	421200006	block4_	flicker_	shape1_	white_	counterclockwise_	loc6_	notarget_	incorrect_or_nopress	block4_flicker_shape1_white_counterclockwise_notarget_incorrect_or_nopressloc6_
392	2	4	254	1	1	0	0	54	0	0	421100054	block4_	flicker_	shape1_	black_	counterclockwise_	loc54_	notarget_	incorrect_or_nopress	block4_flicker_shape1_black_counterclockwise_notarget_incorrect_or_nopressloc54_
393	2	4	255	1	1	0	0	55	0	0	421100055	block4_	flicker_	shape1_	black_	counterclockwise_	loc55_	notarget_	incorrect_or_nopress	block4_flicker_shape1_black_counterclockwise_notarget_incorrect_or_nopressloc55_
394	2	4	206	2	2	0	0	6	0	0	422200006	block4_	flicker_	shape2_	white_	counterclockwise_	loc6_	notarget_	incorrect_or_nopress	block4_flicker_shape2_white_counterclockwise_notarget_incorrect_or_nopressloc6_
395	2	4	238	2	1	0	0	38	0	0	422100038	block4_	flicker_	shape2_	black_	counterclockwise_	loc38_	notarget_	incorrect_or_nopress	block4_flicker_shape2_black_counterclockwise_notarget_incorrect_or_nopressloc38_
396	2	4	250	2	2	0	0	50	0	0	422200050	block4_	flicker_	shape2_	white_	counterclockwise_	loc50_	notarget_	incorrect_or_nopress	block4_flicker_shape2_white_counterclockwise_notarget_incorrect_or_nopressloc50_
397	2	4	245	2	2	0	0	45	0	0	422200045	block4_	flicker_	shape2_	white_	counterclockwise_	loc45_	notarget_	incorrect_or_nopress	block4_flicker_shape2_white_counterclockwise_notarget_incorrect_or_nopressloc45_
398	2	4	224	2	1	0	0	24	0	0	422100024	block4_	flicker_	shape2_	black_	counterclockwise_	loc24_	notarget_	incorrect_or_nopress	block4_flicker_shape2_black_counterclockwise_notarget_incorrect_or_nopressloc24_
399	2	4	260	2	1	0	0	60	0	0	422100060	block4_	flicker_	shape2_	black_	counterclockwise_	loc60_	notarget_	incorrect_or_nopress	block4_flicker_shape2_black_counterclockwise_notarget_incorrect_or_nopressloc60_
400	2	4	231	1	1	0	0	31	0	0	421100031	block4_	flicker_	shape1_	black_	counterclockwise_	loc31_	notarget_	incorrect_or_nopress	block4_flicker_shape1_black_counterclockwise_notarget_incorrect_or_nopressloc31_
401	2	4	237	2	1	0	0	37	0	0	422100037	block4_	flicker_	shape2_	black_	counterclockwise_	loc37_	notarget_	incorrect_or_nopress	block4_flicker_shape2_black_counterclockwise_notarget_incorrect_or_nopressloc37_
402	2	4	224	1	1	0	0	24	0	0	421100024	block4_	flicker_	shape1_	black_	counterclockwise_	loc24_	notarget_	incorrect_or_nopress	block4_flicker_shape1_black_counterclockwise_notarget_incorrect_or_nopressloc24_
403	2	4	260	1	2	0	0	60	0	0	421200060	block4_	flicker_	shape1_	white_	counterclockwise_	loc60_	notarget_	incorrect_or_nopress	block4_flicker_shape1_white_counterclockwise_notarget_incorrect_or_nopressloc60_
404	2	4	264	1	2	0	2	64	2	0	421202064	block4_	flicker_	shape1_	white_	counterclockwise_	loc64_	padding_	incorrect_or_nopress	block4_flicker_shape1_white_counterclockwise_padding_incorrect_or_nopressloc64_
405	2	4	212	2	1	0	0	12	0	0	422100012	block4_	flicker_	shape2_	black_	counterclockwise_	loc12_	notarget_	incorrect_or_nopress	block4_flicker_shape2_black_counterclockwise_notarget_incorrect_or_nopressloc12_
406	2	4	234	1	2	0	0	34	0	0	421200034	block4_	flicker_	shape1_	white_	counterclockwise_	loc34_	notarget_	incorrect_or_nopress	block4_flicker_shape1_white_counterclockwise_notarget_incorrect_or_nopressloc34_
407	2	4	205	2	1	0	0	5	0	0	422100005	block4_	flicker_	shape2_	black_	counterclockwise_	loc5_	notarget_	incorrect_or_nopress	block4_flicker_shape2_black_counterclockwise_notarget_incorrect_or_nopressloc5_
408	2	4	248	2	1	0	0	48	0	0	422100048	block4_	flicker_	shape2_	black_	counterclockwise_	loc48_	notarget_	incorrect_or_nopress	block4_flicker_shape2_black_counterclockwise_notarget_incorrect_or_nopressloc48_
409	2	4	218	2	2	0	0	18	0	0	422200018	block4_	flicker_	shape2_	white_	counterclockwise_	loc18_	notarget_	incorrect_or_nopress	block4_flicker_shape2_white_counterclockwise_notarget_incorrect_or_nopressloc18_
410	2	4	231	1	2	0	0	31	0	0	421200031	block4_	flicker_	shape1_	white_	counterclockwise_	loc31_	notarget_	incorrect_or_nopress	block4_flicker_shape1_white_counterclockwise_notarget_incorrect_or_nopressloc31_
411	2	4	257	2	1	0	0	57	0	0	422100057	block4_	flicker_	shape2_	black_	counterclockwise_	loc57_	notarget_	incorrect_or_nopress	block4_flicker_shape2_black_counterclockwise_notarget_incorrect_or_nopressloc57_
412	2	4	258	2	2	0	0	58	0	0	422200058	block4_	flicker_	shape2_	white_	counterclockwise_	loc58_	notarget_	incorrect_or_nopress	block4_flicker_shape2_white_counterclockwise_notarget_incorrect_or_nopressloc58_
413	2	4	230	1	2	0	0	30	0	0	421200030	block4_	flicker_	shape1_	white_	counterclockwise_	loc30_	notarget_	incorrect_or_nopress	block4_flicker_shape1_white_counterclockwise_notarget_incorrect_or_nopressloc30_
414	2	4	259	2	1	0	0	59	0	0	422100059	block4_	flicker_	shape2_	black_	counterclockwise_	loc59_	notarget_	incorrect_or_nopress	block4_flicker_shape2_black_counterclockwise_notarget_incorrect_or_nopressloc59_
415	2	4	227	1	2	0	0	27	0	0	421200027	block4_	flicker_	shape1_	white_	counterclockwise_	loc27_	notarget_	incorrect_or_nopress	block4_flicker_shape1_white_counterclockwise_notarget_incorrect_or_nopressloc27_
416	2	4	228	1	2	0	0	28	0	0	421200028	block4_	flicker_	shape1_	white_	counterclockwise_	loc28_	notarget_	incorrect_or_nopress	block4_flicker_shape1_white_counterclockwise_notarget_incorrect_or_nopressloc28_
417	2	4	260	2	2	0	0	60	0	0	422200060	block4_	flicker_	shape2_	white_	counterclockwise_	loc60_	notarget_	incorrect_or_nopress	block4_flicker_shape2_white_counterclockwise_notarget_incorrect_or_nopressloc60_
418	2	4	249	2	1	0	0	49	0	0	422100049	block4_	flicker_	shape2_	black_	counterclockwise_	loc49_	notarget_	incorrect_or_nopress	block4_flicker_shape2_black_counterclockwise_notarget_incorrect_or_nopressloc49_
419	2	4	262	2	1	0	0	62	0	0	422100062	block4_	flicker_	shape2_	black_	counterclockwise_	loc62_	notarget_	incorrect_or_nopress	block4_flicker_shape2_black_counterclockwise_notarget_incorrect_or_nopressloc62_
420	2	4	251	2	2	0	0	51	0	0	422200051	block4_	flicker_	shape2_	white_	counterclockwise_	loc51_	notarget_	incorrect_or_nopress	block4_flicker_shape2_white_counterclockwise_notarget_incorrect_or_nopressloc51_
421	2	4	229	1	1	0	0	29	0	0	421100029	block4_	flicker_	shape1_	black_	counterclockwise_	loc29_	notarget_	incorrect_or_nopress	block4_flicker_shape1_black_counterclockwise_notarget_incorrect_or_nopressloc29_
422	2	4	220	2	1	0	0	20	0	0	422100020	block4_	flicker_	shape2_	black_	counterclockwise_	loc20_	notarget_	incorrect_or_nopress	block4_flicker_shape2_black_counterclockwise_notarget_incorrect_or_nopressloc20_
423	2	4	225	1	2	0	0	25	0	0	421200025	block4_	flicker_	shape1_	white_	counterclockwise_	loc25_	notarget_	incorrect_or_nopress	block4_flicker_shape1_white_counterclockwise_notarget_incorrect_or_nopressloc25_
424	2	4	259	1	1	0	0	59	0	0	421100059	block4_	flicker_	shape1_	black_	counterclockwise_	loc59_	notarget_	incorrect_or_nopress	block4_flicker_shape1_black_counterclockwise_notarget_incorrect_or_nopressloc59_
425	2	4	230	2	1	0	0	30	0	0	422100030	block4_	flicker_	shape2_	black_	counterclockwise_	loc30_	notarget_	incorrect_or_nopress	block4_flicker_shape2_black_counterclockwise_notarget_incorrect_or_nopressloc30_
426	2	4	253	2	2	0	0	53	0	0	422200053	block4_	flicker_	shape2_	white_	counterclockwise_	loc53_	notarget_	incorrect_or_nopress	block4_flicker_shape2_white_counterclockwise_notarget_incorrect_or_nopressloc53_
427	2	4	232	2	1	0	0	32	0	0	422100032	block4_	flicker_	shape2_	black_	counterclockwise_	loc32_	notarget_	incorrect_or_nopress	block4_flicker_shape2_black_counterclockwise_notarget_incorrect_or_nopressloc32_
428	2	4	216	2	2	0	0	16	0	0	422200016	block4_	flicker_	shape2_	white_	counterclockwise_	loc16_	notarget_	incorrect_or_nopress	block4_flicker_shape2_white_counterclockwise_notarget_incorrect_or_nopressloc16_
429	2	4	237	1	1	0	0	37	0	0	421100037	block4_	flicker_	shape1_	black_	counterclockwise_	loc37_	notarget_	incorrect_or_nopress	block4_flicker_shape1_black_counterclockwise_notarget_incorrect_or_nopressloc37_
430	2	4	262	2	2	0	0	62	0	0	422200062	block4_	flicker_	shape2_	white_	counterclockwise_	loc62_	notarget_	incorrect_or_nopress	block4_flicker_shape2_white_counterclockwise_notarget_incorrect_or_nopressloc62_
431	2	4	215	1	1	0	0	15	0	0	421100015	block4_	flicker_	shape1_	black_	counterclockwise_	loc15_	notarget_	incorrect_or_nopress	block4_flicker_shape1_black_counterclockwise_notarget_incorrect_or_nopressloc15_
432	2	4	218	1	2	0	0	18	0	0	421200018	block4_	flicker_	shape1_	white_	counterclockwise_	loc18_	notarget_	incorrect_or_nopress	block4_flicker_shape1_white_counterclockwise_notarget_incorrect_or_nopressloc18_
433	2	4	264	2	1	0	0	64	0	0	422100064	block4_	flicker_	shape2_	black_	counterclockwise_	loc64_	notarget_	incorrect_or_nopress	block4_flicker_shape2_black_counterclockwise_notarget_incorrect_or_nopressloc64_
434	2	4	252	2	1	0	0	52	0	0	422100052	block4_	flicker_	shape2_	black_	counterclockwise_	loc52_	notarget_	incorrect_or_nopress	block4_flicker_shape2_black_counterclockwise_notarget_incorrect_or_nopressloc52_
435	2	4	218	1	1	0	0	18	0	0	421100018	block4_	flicker_	shape1_	black_	counterclockwise_	loc18_	notarget_	incorrect_or_nopress	block4_flicker_shape1_black_counterclockwise_notarget_incorrect_or_nopressloc18_
436	2	4	217	1	2	0	0	17	0	0	421200017	block4_	flicker_	shape1_	white_	counterclockwise_	loc17_	notarget_	incorrect_or_nopress	block4_flicker_shape1_white_counterclockwise_notarget_incorrect_or_nopressloc17_
437	2	4	222	1	2	0	0	22	0	0	421200022	block4_	flicker_	shape1_	white_	counterclockwise_	loc22_	notarget_	incorrect_or_nopress	block4_flicker_shape1_white_counterclockwise_notarget_incorrect_or_nopressloc22_
438	2	4	208	2	2	0	0	8	0	0	422200008	block4_	flicker_	shape2_	white_	counterclockwise_	loc8_	notarget_	incorrect_or_nopress	block4_flicker_shape2_white_counterclockwise_notarget_incorrect_or_nopressloc8_
439	2	4	236	2	1	0	0	36	0	0	422100036	block4_	flicker_	shape2_	black_	counterclockwise_	loc36_	notarget_	incorrect_or_nopress	block4_flicker_shape2_black_counterclockwise_notarget_incorrect_or_nopressloc36_
440	2	4	241	2	1	0	0	41	0	0	422100041	block4_	flicker_	shape2_	black_	counterclockwise_	loc41_	notarget_	incorrect_or_nopress	block4_flicker_shape2_black_counterclockwise_notarget_incorrect_or_nopressloc41_
441	2	4	257	2	2	0	0	57	0	0	422200057	block4_	flicker_	shape2_	white_	counterclockwise_	loc57_	notarget_	incorrect_or_nopress	block4_flicker_shape2_white_counterclockwise_notarget_incorrect_or_nopressloc57_
442	2	4	225	2	2	0	0	25	0	0	422200025	block4_	flicker_	shape2_	white_	counterclockwise_	loc25_	notarget_	incorrect_or_nopress	block4_flicker_shape2_white_counterclockwise_notarget_incorrect_or_nopressloc25_
443	2	4	208	1	2	0	0	8	0	0	421200008	block4_	flicker_	shape1_	white_	counterclockwise_	loc8_	notarget_	incorrect_or_nopress	block4_flicker_shape1_white_counterclockwise_notarget_incorrect_or_nopressloc8_
444	2	4	253	1	1	0	0	53	0	0	421100053	block4_	flicker_	shape1_	black_	counterclockwise_	loc53_	notarget_	incorrect_or_nopress	block4_flicker_shape1_black_counterclockwise_notarget_incorrect_or_nopressloc53_
445	2	4	212	2	2	0	0	12	0	0	422200012	block4_	flicker_	shape2_	white_	counterclockwise_	loc12_	notarget_	incorrect_or_nopress	block4_flicker_shape2_white_counterclockwise_notarget_incorrect_or_nopressloc12_
446	2	4	216	1	2	0	0	16	0	0	421200016	block4_	flicker_	shape1_	white_	counterclockwise_	loc16_	notarget_	incorrect_or_nopress	block4_flicker_shape1_white_counterclockwise_notarget_incorrect_or_nopressloc16_
447	2	4	211	1	2	0	0	11	0	0	421200011	block4_	flicker_	shape1_	white_	counterclockwise_	loc11_	notarget_	incorrect_or_nopress	block4_flicker_shape1_white_counterclockwise_notarget_incorrect_or_nopressloc11_
448	2	4	242	1	2	0	0	42	0	0	421200042	block4_	flicker_	shape1_	white_	counterclockwise_	loc42_	notarget_	incorrect_or_nopress	block4_flicker_shape1_white_counterclockwise_notarget_incorrect_or_nopressloc42_
449	2	4	236	1	1	0	0	36	0	0	421100036	block4_	flicker_	shape1_	black_	counterclockwise_	loc36_	notarget_	incorrect_or_nopress	block4_flicker_shape1_black_counterclockwise_notarget_incorrect_or_nopressloc36_
450	2	4	207	1	1	0	0	7	0	0	421100007	block4_	flicker_	shape1_	black_	counterclockwise_	loc7_	notarget_	incorrect_or_nopress	block4_flicker_shape1_black_counterclockwise_notarget_incorrect_or_nopressloc7_
451	2	4	206	2	1	0	0	6	0	0	422100006	block4_	flicker_	shape2_	black_	counterclockwise_	loc6_	notarget_	incorrect_or_nopress	block4_flicker_shape2_black_counterclockwise_notarget_incorrect_or_nopressloc6_
452	2	4	222	1	1	0	0	22	0	0	421100022	block4_	flicker_	shape1_	black_	counterclockwise_	loc22_	notarget_	incorrect_or_nopress	block4_flicker_shape1_black_counterclockwise_notarget_incorrect_or_nopressloc22_
453	2	4	254	1	2	0	0	54	0	0	421200054	block4_	flicker_	shape1_	white_	counterclockwise_	loc54_	notarget_	incorrect_or_nopress	block4_flicker_shape1_white_counterclockwise_notarget_incorrect_or_nopressloc54_
454	2	4	209	2	2	0	0	9	0	0	422200009	block4_	flicker_	shape2_	white_	counterclockwise_	loc9_	notarget_	incorrect_or_nopress	block4_flicker_shape2_white_counterclockwise_notarget_incorrect_or_nopressloc9_
455	2	4	253	2	1	0	0	53	0	0	422100053	block4_	flicker_	shape2_	black_	counterclockwise_	loc53_	notarget_	incorrect_or_nopress	block4_flicker_shape2_black_counterclockwise_notarget_incorrect_or_nopressloc53_
456	2	4	239	1	2	0	0	39	0	0	421200039	block4_	flicker_	shape1_	white_	counterclockwise_	loc39_	notarget_	incorrect_or_nopress	block4_flicker_shape1_white_counterclockwise_notarget_incorrect_or_nopressloc39_
457	2	4	212	1	2	0	0	12	0	0	421200012	block4_	flicker_	shape1_	white_	counterclockwise_	loc12_	notarget_	incorrect_or_nopress	block4_flicker_shape1_white_counterclockwise_notarget_incorrect_or_nopressloc12_
458	2	4	209	2	1	0	0	9	0	0	422100009	block4_	flicker_	shape2_	black_	counterclockwise_	loc9_	notarget_	incorrect_or_nopress	block4_flicker_shape2_black_counterclockwise_notarget_incorrect_or_nopressloc9_
459	2	4	263	2	1	0	0	63	0	0	422100063	block4_	flicker_	shape2_	black_	counterclockwise_	loc63_	notarget_	incorrect_or_nopress	block4_flicker_shape2_black_counterclockwise_notarget_incorrect_or_nopressloc63_
460	2	4	243	2	2	0	0	43	0	0	422200043	block4_	flicker_	shape2_	white_	counterclockwise_	loc43_	notarget_	incorrect_or_nopress	block4_flicker_shape2_white_counterclockwise_notarget_incorrect_or_nopressloc43_
461	2	4	217	2	1	0	0	17	0	0	422100017	block4_	flicker_	shape2_	black_	counterclockwise_	loc17_	notarget_	incorrect_or_nopress	block4_flicker_shape2_black_counterclockwise_notarget_incorrect_or_nopressloc17_
462	2	4	249	1	1	0	0	49	0	0	421100049	block4_	flicker_	shape1_	black_	counterclockwise_	loc49_	notarget_	incorrect_or_nopress	block4_flicker_shape1_black_counterclockwise_notarget_incorrect_or_nopressloc49_
463	2	4	256	1	2	0	0	56	0	0	421200056	block4_	flicker_	shape1_	white_	counterclockwise_	loc56_	notarget_	incorrect_or_nopress	block4_flicker_shape1_white_counterclockwise_notarget_incorrect_or_nopressloc56_
464	2	4	247	2	2	0	0	47	0	0	422200047	block4_	flicker_	shape2_	white_	counterclockwise_	loc47_	notarget_	incorrect_or_nopress	block4_flicker_shape2_white_counterclockwise_notarget_incorrect_or_nopressloc47_
465	2	4	225	2	1	0	0	25	0	0	422100025	block4_	flicker_	shape2_	black_	counterclockwise_	loc25_	notarget_	incorrect_or_nopress	block4_flicker_shape2_black_counterclockwise_notarget_incorrect_or_nopressloc25_
466	2	4	264	1	2	0	0	64	0	0	421200064	block4_	flicker_	shape1_	white_	counterclockwise_	loc64_	notarget_	incorrect_or_nopress	block4_flicker_shape1_white_counterclockwise_notarget_incorrect_or_nopressloc64_
467	2	4	240	2	1	0	0	40	0	0	422100040	block4_	flicker_	shape2_	black_	counterclockwise_	loc40_	notarget_	incorrect_or_nopress	block4_flicker_shape2_black_counterclockwise_notarget_incorrect_or_nopressloc40_
468	2	4	223	1	2	0	0	23	0	0	421200023	block4_	flicker_	shape1_	white_	counterclockwise_	loc23_	notarget_	incorrect_or_nopress	block4_flicker_shape1_white_counterclockwise_notarget_incorrect_or_nopressloc23_
469	2	4	219	1	1	0	0	19	0	0	421100019	block4_	flicker_	shape1_	black_	counterclockwise_	loc19_	notarget_	incorrect_or_nopress	block4_flicker_shape1_black_counterclockwise_notarget_incorrect_or_nopressloc19_
470	2	4	244	2	1	0	0	44	0	0	422100044	block4_	flicker_	shape2_	black_	counterclockwise_	loc44_	notarget_	incorrect_or_nopress	block4_flicker_shape2_black_counterclockwise_notarget_incorrect_or_nopressloc44_
471	2	4	222	2	1	0	0	22	0	0	422100022	block4_	flicker_	shape2_	black_	counterclockwise_	loc22_	notarget_	incorrect_or_nopress	block4_flicker_shape2_black_counterclockwise_notarget_incorrect_or_nopressloc22_
472	2	4	216	1	1	0	0	16	0	0	421100016	block4_	flicker_	shape1_	black_	counterclockwise_	loc16_	notarget_	incorrect_or_nopress	block4_flicker_shape1_black_counterclockwise_notarget_incorrect_or_nopressloc16_
473	2	4	252	1	2	0	0	52	0	0	421200052	block4_	flicker_	shape1_	white_	counterclockwise_	loc52_	notarget_	incorrect_or_nopress	block4_flicker_shape1_white_counterclockwise_notarget_incorrect_or_nopressloc52_
474	2	4	228	1	1	0	0	28	0	0	421100028	block4_	flicker_	shape1_	black_	counterclockwise_	loc28_	notarget_	incorrect_or_nopress	block4_flicker_shape1_black_counterclockwise_notarget_incorrect_or_nopressloc28_
475	2	4	257	1	1	0	0	57	0	0	421100057	block4_	flicker_	shape1_	black_	counterclockwise_	loc57_	notarget_	incorrect_or_nopress	block4_flicker_shape1_black_counterclockwise_notarget_incorrect_or_nopressloc57_
476	2	4	220	2	2	0	0	20	0	0	422200020	block4_	flicker_	shape2_	white_	counterclockwise_	loc20_	notarget_	incorrect_or_nopress	block4_flicker_shape2_white_counterclockwise_notarget_incorrect_or_nopressloc20_
477	2	4	234	2	2	0	0	34	0	0	422200034	block4_	flicker_	shape2_	white_	counterclockwise_	loc34_	notarget_	incorrect_or_nopress	block4_flicker_shape2_white_counterclockwise_notarget_incorrect_or_nopressloc34_
478	2	4	255	2	2	0	0	55	0	0	422200055	block4_	flicker_	shape2_	white_	counterclockwise_	loc55_	notarget_	incorrect_or_nopress	block4_flicker_shape2_white_counterclockwise_notarget_incorrect_or_nopressloc55_
479	2	4	226	1	2	0	0	26	0	0	421200026	block4_	flicker_	shape1_	white_	counterclockwise_	loc26_	notarget_	incorrect_or_nopress	block4_flicker_shape1_white_counterclockwise_notarget_incorrect_or_nopressloc26_
480	2	4	258	1	2	0	0	58	0	0	421200058	block4_	flicker_	shape1_	white_	counterclockwise_	loc58_	notarget_	incorrect_or_nopress	block4_flicker_shape1_white_counterclockwise_notarget_incorrect_or_nopressloc58_
481	2	4	209	1	2	0	0	9	0	0	421200009	block4_	flicker_	shape1_	white_	counterclockwise_	loc9_	notarget_	incorrect_or_nopress	block4_flicker_shape1_white_counterclockwise_notarget_incorrect_or_nopressloc9_
482	2	4	246	1	1	0	0	46	0	0	421100046	block4_	flicker_	shape1_	black_	counterclockwise_	loc46_	notarget_	incorrect_or_nopress	block4_flicker_shape1_black_counterclockwise_notarget_incorrect_or_nopressloc46_
483	2	4	228	2	1	0	0	28	0	0	422100028	block4_	flicker_	shape2_	black_	counterclockwise_	loc28_	notarget_	incorrect_or_nopress	block4_flicker_shape2_black_counterclockwise_notarget_incorrect_or_nopressloc28_
484	2	4	255	1	1	0	0	55	0	0	421100055	block4_	flicker_	shape1_	black_	counterclockwise_	loc55_	notarget_	incorrect_or_nopress	block4_flicker_shape1_black_counterclockwise_notarget_incorrect_or_nopressloc55_
485	2	4	227	1	1	0	0	27	0	0	421100027	block4_	flicker_	shape1_	black_	counterclockwise_	loc27_	notarget_	incorrect_or_nopress	block4_flicker_shape1_black_counterclockwise_notarget_incorrect_or_nopressloc27_
