	trial_type	block_num	trialID	shape	colour	direction	istarget	start_loc	target_position	accuracy_or_button	unique_ID	block_num_mod	trial_type_mod	shape_mod	colour_mod	direction_mod	start_loc_mod	istarget_mod	accuracy_or_button_mod	condition_name
0	1	3	120	2	1	2	0	4	0	0	312120004	block3_	disappearance_	shape2_	black_	counterclockwise_	loc4_	notarget_	incorrect_or_nopress	block3_disappearance_shape2_black_counterclockwise_notarget_incorrect_or_nopressloc4_
1	1	3	127	2	2	2	0	3	0	1	312220103	block3_	disappearance_	shape2_	white_	counterclockwise_	loc3_	notarget_	correct_or_press	block3_disappearance_shape2_white_counterclockwise_notarget_correct_or_pressloc3_
2	1	3	106	1	1	1	1	2	9	1	311111102	block3_	disappearance_	shape1_	black_	clockwise_	loc2_	istarget_	correct_or_press	block3_disappearance_shape1_black_clockwise_istarget_correct_or_pressloc2_
3	1	3	115	1	2	1	0	3	0	1	311210103	block3_	disappearance_	shape1_	white_	clockwise_	loc3_	notarget_	correct_or_press	block3_disappearance_shape1_white_clockwise_notarget_correct_or_pressloc3_
4	1	3	111	1	2	2	0	3	0	1	311220103	block3_	disappearance_	shape1_	white_	counterclockwise_	loc3_	notarget_	correct_or_press	block3_disappearance_shape1_white_counterclockwise_notarget_correct_or_pressloc3_
5	1	3	107	1	1	1	0	3	0	1	311110103	block3_	disappearance_	shape1_	black_	clockwise_	loc3_	notarget_	correct_or_press	block3_disappearance_shape1_black_clockwise_notarget_correct_or_pressloc3_
6	1	3	123	2	1	1	0	3	0	1	312110103	block3_	disappearance_	shape2_	black_	clockwise_	loc3_	notarget_	correct_or_press	block3_disappearance_shape2_black_clockwise_notarget_correct_or_pressloc3_
7	1	3	106	1	1	1	0	2	0	1	311110102	block3_	disappearance_	shape1_	black_	clockwise_	loc2_	notarget_	correct_or_press	block3_disappearance_shape1_black_clockwise_notarget_correct_or_pressloc2_
8	1	3	129	2	2	1	0	1	0	1	312210101	block3_	disappearance_	shape2_	white_	clockwise_	loc1_	notarget_	correct_or_press	block3_disappearance_shape2_white_clockwise_notarget_correct_or_pressloc1_
9	1	3	116	1	2	1	0	4	0	1	311210104	block3_	disappearance_	shape1_	white_	clockwise_	loc4_	notarget_	correct_or_press	block3_disappearance_shape1_white_clockwise_notarget_correct_or_pressloc4_
10	1	3	130	2	2	1	0	2	0	1	312210102	block3_	disappearance_	shape2_	white_	clockwise_	loc2_	notarget_	correct_or_press	block3_disappearance_shape2_white_clockwise_notarget_correct_or_pressloc2_
11	1	3	104	1	1	2	0	4	0	1	311120104	block3_	disappearance_	shape1_	black_	counterclockwise_	loc4_	notarget_	correct_or_press	block3_disappearance_shape1_black_counterclockwise_notarget_correct_or_pressloc4_
12	1	3	102	1	1	2	0	2	0	1	311120102	block3_	disappearance_	shape1_	black_	counterclockwise_	loc2_	notarget_	correct_or_press	block3_disappearance_shape1_black_counterclockwise_notarget_correct_or_pressloc2_
13	1	3	124	2	1	1	0	4	0	1	312110104	block3_	disappearance_	shape2_	black_	clockwise_	loc4_	notarget_	correct_or_press	block3_disappearance_shape2_black_clockwise_notarget_correct_or_pressloc4_
14	1	3	131	2	2	1	0	3	0	1	312210103	block3_	disappearance_	shape2_	white_	clockwise_	loc3_	notarget_	correct_or_press	block3_disappearance_shape2_white_clockwise_notarget_correct_or_pressloc3_
15	1	3	128	2	2	2	0	4	0	1	312220104	block3_	disappearance_	shape2_	white_	counterclockwise_	loc4_	notarget_	correct_or_press	block3_disappearance_shape2_white_counterclockwise_notarget_correct_or_pressloc4_
16	1	3	109	1	2	2	1	1	15	1	311221101	block3_	disappearance_	shape1_	white_	counterclockwise_	loc1_	istarget_	correct_or_press	block3_disappearance_shape1_white_counterclockwise_istarget_correct_or_pressloc1_
17	1	3	108	1	1	1	0	4	0	1	311110104	block3_	disappearance_	shape1_	black_	clockwise_	loc4_	notarget_	correct_or_press	block3_disappearance_shape1_black_clockwise_notarget_correct_or_pressloc4_
18	1	3	124	2	1	1	0	4	0	1	312110104	block3_	disappearance_	shape2_	black_	clockwise_	loc4_	notarget_	correct_or_press	block3_disappearance_shape2_black_clockwise_notarget_correct_or_pressloc4_
19	1	3	118	2	1	2	1	2	17	1	312121102	block3_	disappearance_	shape2_	black_	counterclockwise_	loc2_	istarget_	correct_or_press	block3_disappearance_shape2_black_counterclockwise_istarget_correct_or_pressloc2_
20	1	3	112	1	2	2	0	4	0	1	311220104	block3_	disappearance_	shape1_	white_	counterclockwise_	loc4_	notarget_	correct_or_press	block3_disappearance_shape1_white_counterclockwise_notarget_correct_or_pressloc4_
21	1	3	102	1	1	2	1	2	18	1	311121102	block3_	disappearance_	shape1_	black_	counterclockwise_	loc2_	istarget_	correct_or_press	block3_disappearance_shape1_black_counterclockwise_istarget_correct_or_pressloc2_
22	1	3	130	2	2	1	1	2	11	1	312211102	block3_	disappearance_	shape2_	white_	clockwise_	loc2_	istarget_	correct_or_press	block3_disappearance_shape2_white_clockwise_istarget_correct_or_pressloc2_
23	1	3	115	1	2	1	0	3	0	1	311210103	block3_	disappearance_	shape1_	white_	clockwise_	loc3_	notarget_	correct_or_press	block3_disappearance_shape1_white_clockwise_notarget_correct_or_pressloc3_
24	1	3	105	1	1	1	0	1	0	1	311110101	block3_	disappearance_	shape1_	black_	clockwise_	loc1_	notarget_	correct_or_press	block3_disappearance_shape1_black_clockwise_notarget_correct_or_pressloc1_
25	1	3	104	1	1	2	0	4	0	1	311120104	block3_	disappearance_	shape1_	black_	counterclockwise_	loc4_	notarget_	correct_or_press	block3_disappearance_shape1_black_counterclockwise_notarget_correct_or_pressloc4_
26	1	3	108	1	1	1	0	4	0	1	311110104	block3_	disappearance_	shape1_	black_	clockwise_	loc4_	notarget_	correct_or_press	block3_disappearance_shape1_black_clockwise_notarget_correct_or_pressloc4_
27	1	3	119	2	1	2	0	3	0	1	312120103	block3_	disappearance_	shape2_	black_	counterclockwise_	loc3_	notarget_	correct_or_press	block3_disappearance_shape2_black_counterclockwise_notarget_correct_or_pressloc3_
28	1	3	107	1	1	1	0	3	0	0	311110003	block3_	disappearance_	shape1_	black_	clockwise_	loc3_	notarget_	incorrect_or_nopress	block3_disappearance_shape1_black_clockwise_notarget_incorrect_or_nopressloc3_
29	1	3	132	2	2	1	1	4	11	1	312211104	block3_	disappearance_	shape2_	white_	clockwise_	loc4_	istarget_	correct_or_press	block3_disappearance_shape2_white_clockwise_istarget_correct_or_pressloc4_
30	1	3	114	1	2	1	0	2	0	1	311210102	block3_	disappearance_	shape1_	white_	clockwise_	loc2_	notarget_	correct_or_press	block3_disappearance_shape1_white_clockwise_notarget_correct_or_pressloc2_
31	1	3	125	2	2	2	0	1	0	1	312220101	block3_	disappearance_	shape2_	white_	counterclockwise_	loc1_	notarget_	correct_or_press	block3_disappearance_shape2_white_counterclockwise_notarget_correct_or_pressloc1_
32	1	3	130	2	2	1	0	2	0	1	312210102	block3_	disappearance_	shape2_	white_	clockwise_	loc2_	notarget_	correct_or_press	block3_disappearance_shape2_white_clockwise_notarget_correct_or_pressloc2_
33	1	3	120	2	1	2	0	4	0	1	312120104	block3_	disappearance_	shape2_	black_	counterclockwise_	loc4_	notarget_	correct_or_press	block3_disappearance_shape2_black_counterclockwise_notarget_correct_or_pressloc4_
34	1	3	105	1	1	1	0	1	0	1	311110101	block3_	disappearance_	shape1_	black_	clockwise_	loc1_	notarget_	correct_or_press	block3_disappearance_shape1_black_clockwise_notarget_correct_or_pressloc1_
35	1	3	104	1	1	2	0	4	0	1	311120104	block3_	disappearance_	shape1_	black_	counterclockwise_	loc4_	notarget_	correct_or_press	block3_disappearance_shape1_black_counterclockwise_notarget_correct_or_pressloc4_
36	1	3	122	2	1	1	1	2	12	1	312111102	block3_	disappearance_	shape2_	black_	clockwise_	loc2_	istarget_	correct_or_press	block3_disappearance_shape2_black_clockwise_istarget_correct_or_pressloc2_
37	1	3	113	1	2	1	0	1	0	1	311210101	block3_	disappearance_	shape1_	white_	clockwise_	loc1_	notarget_	correct_or_press	block3_disappearance_shape1_white_clockwise_notarget_correct_or_pressloc1_
38	1	3	129	2	2	1	0	1	0	1	312210101	block3_	disappearance_	shape2_	white_	clockwise_	loc1_	notarget_	correct_or_press	block3_disappearance_shape2_white_clockwise_notarget_correct_or_pressloc1_
39	1	3	131	2	2	1	0	3	0	1	312210103	block3_	disappearance_	shape2_	white_	clockwise_	loc3_	notarget_	correct_or_press	block3_disappearance_shape2_white_clockwise_notarget_correct_or_pressloc3_
40	1	3	109	1	2	2	0	1	0	1	311220101	block3_	disappearance_	shape1_	white_	counterclockwise_	loc1_	notarget_	correct_or_press	block3_disappearance_shape1_white_counterclockwise_notarget_correct_or_pressloc1_
41	1	3	110	1	2	2	1	2	18	1	311221102	block3_	disappearance_	shape1_	white_	counterclockwise_	loc2_	istarget_	correct_or_press	block3_disappearance_shape1_white_counterclockwise_istarget_correct_or_pressloc2_
42	1	3	110	1	2	2	0	2	0	1	311220102	block3_	disappearance_	shape1_	white_	counterclockwise_	loc2_	notarget_	correct_or_press	block3_disappearance_shape1_white_counterclockwise_notarget_correct_or_pressloc2_
43	1	3	112	1	2	2	1	4	19	1	311221104	block3_	disappearance_	shape1_	white_	counterclockwise_	loc4_	istarget_	correct_or_press	block3_disappearance_shape1_white_counterclockwise_istarget_correct_or_pressloc4_
44	1	3	118	2	1	2	1	2	14	1	312121102	block3_	disappearance_	shape2_	black_	counterclockwise_	loc2_	istarget_	correct_or_press	block3_disappearance_shape2_black_counterclockwise_istarget_correct_or_pressloc2_
45	1	3	116	1	2	1	0	4	0	1	311210104	block3_	disappearance_	shape1_	white_	clockwise_	loc4_	notarget_	correct_or_press	block3_disappearance_shape1_white_clockwise_notarget_correct_or_pressloc4_
46	1	3	127	2	2	2	0	3	0	1	312220103	block3_	disappearance_	shape2_	white_	counterclockwise_	loc3_	notarget_	correct_or_press	block3_disappearance_shape2_white_counterclockwise_notarget_correct_or_pressloc3_
47	1	3	128	2	2	2	0	4	0	1	312220104	block3_	disappearance_	shape2_	white_	counterclockwise_	loc4_	notarget_	correct_or_press	block3_disappearance_shape2_white_counterclockwise_notarget_correct_or_pressloc4_
48	1	3	123	2	1	1	0	3	0	1	312110103	block3_	disappearance_	shape2_	black_	clockwise_	loc3_	notarget_	correct_or_press	block3_disappearance_shape2_black_clockwise_notarget_correct_or_pressloc3_
49	1	3	103	1	1	2	0	3	0	1	311120103	block3_	disappearance_	shape1_	black_	counterclockwise_	loc3_	notarget_	correct_or_press	block3_disappearance_shape1_black_counterclockwise_notarget_correct_or_pressloc3_
50	1	3	103	1	1	2	0	3	0	1	311120103	block3_	disappearance_	shape1_	black_	counterclockwise_	loc3_	notarget_	correct_or_press	block3_disappearance_shape1_black_counterclockwise_notarget_correct_or_pressloc3_
51	1	3	117	2	1	2	0	1	0	1	312120101	block3_	disappearance_	shape2_	black_	counterclockwise_	loc1_	notarget_	correct_or_press	block3_disappearance_shape2_black_counterclockwise_notarget_correct_or_pressloc1_
52	1	3	126	2	2	2	0	2	0	1	312220102	block3_	disappearance_	shape2_	white_	counterclockwise_	loc2_	notarget_	correct_or_press	block3_disappearance_shape2_white_counterclockwise_notarget_correct_or_pressloc2_
53	1	3	120	2	1	2	0	4	0	1	312120104	block3_	disappearance_	shape2_	black_	counterclockwise_	loc4_	notarget_	correct_or_press	block3_disappearance_shape2_black_counterclockwise_notarget_correct_or_pressloc4_
54	1	3	118	2	1	2	0	2	0	1	312120102	block3_	disappearance_	shape2_	black_	counterclockwise_	loc2_	notarget_	correct_or_press	block3_disappearance_shape2_black_counterclockwise_notarget_correct_or_pressloc2_
55	1	3	101	1	1	2	0	1	0	1	311120101	block3_	disappearance_	shape1_	black_	counterclockwise_	loc1_	notarget_	correct_or_press	block3_disappearance_shape1_black_counterclockwise_notarget_correct_or_pressloc1_
56	1	3	118	2	1	2	0	2	0	1	312120102	block3_	disappearance_	shape2_	black_	counterclockwise_	loc2_	notarget_	correct_or_press	block3_disappearance_shape2_black_counterclockwise_notarget_correct_or_pressloc2_
57	1	3	130	2	2	1	1	2	16	1	312211102	block3_	disappearance_	shape2_	white_	clockwise_	loc2_	istarget_	correct_or_press	block3_disappearance_shape2_white_clockwise_istarget_correct_or_pressloc2_
58	1	3	121	2	1	1	1	1	13	1	312111101	block3_	disappearance_	shape2_	black_	clockwise_	loc1_	istarget_	correct_or_press	block3_disappearance_shape2_black_clockwise_istarget_correct_or_pressloc1_
59	1	3	119	2	1	2	0	3	0	1	312120103	block3_	disappearance_	shape2_	black_	counterclockwise_	loc3_	notarget_	correct_or_press	block3_disappearance_shape2_black_counterclockwise_notarget_correct_or_pressloc3_
60	1	3	114	1	2	1	0	2	0	1	311210102	block3_	disappearance_	shape1_	white_	clockwise_	loc2_	notarget_	correct_or_press	block3_disappearance_shape1_white_clockwise_notarget_correct_or_pressloc2_
61	1	3	117	2	1	2	0	1	0	1	312120101	block3_	disappearance_	shape2_	black_	counterclockwise_	loc1_	notarget_	correct_or_press	block3_disappearance_shape2_black_counterclockwise_notarget_correct_or_pressloc1_
62	1	3	122	2	1	1	0	2	0	1	312110102	block3_	disappearance_	shape2_	black_	clockwise_	loc2_	notarget_	correct_or_press	block3_disappearance_shape2_black_clockwise_notarget_correct_or_pressloc2_
63	1	3	112	1	2	2	0	4	0	1	311220104	block3_	disappearance_	shape1_	white_	counterclockwise_	loc4_	notarget_	correct_or_press	block3_disappearance_shape1_white_counterclockwise_notarget_correct_or_pressloc4_
64	1	3	132	2	2	1	0	4	0	1	312210104	block3_	disappearance_	shape2_	white_	clockwise_	loc4_	notarget_	correct_or_press	block3_disappearance_shape2_white_clockwise_notarget_correct_or_pressloc4_
65	1	3	119	2	1	2	0	3	0	1	312120103	block3_	disappearance_	shape2_	black_	counterclockwise_	loc3_	notarget_	correct_or_press	block3_disappearance_shape2_black_counterclockwise_notarget_correct_or_pressloc3_
66	1	3	125	2	2	2	0	1	0	1	312220101	block3_	disappearance_	shape2_	white_	counterclockwise_	loc1_	notarget_	correct_or_press	block3_disappearance_shape2_white_counterclockwise_notarget_correct_or_pressloc1_
67	1	3	106	1	1	1	0	2	0	1	311110102	block3_	disappearance_	shape1_	black_	clockwise_	loc2_	notarget_	correct_or_press	block3_disappearance_shape1_black_clockwise_notarget_correct_or_pressloc2_
68	1	3	106	1	1	1	0	2	0	1	311110102	block3_	disappearance_	shape1_	black_	clockwise_	loc2_	notarget_	correct_or_press	block3_disappearance_shape1_black_clockwise_notarget_correct_or_pressloc2_
69	1	3	124	2	1	1	0	4	0	1	312110104	block3_	disappearance_	shape2_	black_	clockwise_	loc4_	notarget_	correct_or_press	block3_disappearance_shape2_black_clockwise_notarget_correct_or_pressloc4_
70	1	3	113	1	2	1	0	1	0	1	311210101	block3_	disappearance_	shape1_	white_	clockwise_	loc1_	notarget_	correct_or_press	block3_disappearance_shape1_white_clockwise_notarget_correct_or_pressloc1_
71	1	3	126	2	2	2	0	2	0	1	312220102	block3_	disappearance_	shape2_	white_	counterclockwise_	loc2_	notarget_	correct_or_press	block3_disappearance_shape2_white_counterclockwise_notarget_correct_or_pressloc2_
72	1	3	113	1	2	1	0	1	0	1	311210101	block3_	disappearance_	shape1_	white_	clockwise_	loc1_	notarget_	correct_or_press	block3_disappearance_shape1_white_clockwise_notarget_correct_or_pressloc1_
73	1	3	131	2	2	1	1	3	17	1	312211103	block3_	disappearance_	shape2_	white_	clockwise_	loc3_	istarget_	correct_or_press	block3_disappearance_shape2_white_clockwise_istarget_correct_or_pressloc3_
74	1	3	110	1	2	2	0	2	0	1	311220102	block3_	disappearance_	shape1_	white_	counterclockwise_	loc2_	notarget_	correct_or_press	block3_disappearance_shape1_white_counterclockwise_notarget_correct_or_pressloc2_
75	1	3	128	2	2	2	0	4	0	1	312220104	block3_	disappearance_	shape2_	white_	counterclockwise_	loc4_	notarget_	correct_or_press	block3_disappearance_shape2_white_counterclockwise_notarget_correct_or_pressloc4_
76	1	3	109	1	2	2	0	1	0	1	311220101	block3_	disappearance_	shape1_	white_	counterclockwise_	loc1_	notarget_	correct_or_press	block3_disappearance_shape1_white_counterclockwise_notarget_correct_or_pressloc1_
77	1	3	111	1	2	2	0	3	0	1	311220103	block3_	disappearance_	shape1_	white_	counterclockwise_	loc3_	notarget_	correct_or_press	block3_disappearance_shape1_white_counterclockwise_notarget_correct_or_pressloc3_
78	1	3	131	2	2	1	0	3	0	1	312210103	block3_	disappearance_	shape2_	white_	clockwise_	loc3_	notarget_	correct_or_press	block3_disappearance_shape2_white_clockwise_notarget_correct_or_pressloc3_
79	1	3	130	2	2	1	0	2	0	1	312210102	block3_	disappearance_	shape2_	white_	clockwise_	loc2_	notarget_	correct_or_press	block3_disappearance_shape2_white_clockwise_notarget_correct_or_pressloc2_
80	1	3	117	2	1	2	0	1	0	1	312120101	block3_	disappearance_	shape2_	black_	counterclockwise_	loc1_	notarget_	correct_or_press	block3_disappearance_shape2_black_counterclockwise_notarget_correct_or_pressloc1_
81	1	3	122	2	1	1	0	2	0	1	312110102	block3_	disappearance_	shape2_	black_	clockwise_	loc2_	notarget_	correct_or_press	block3_disappearance_shape2_black_clockwise_notarget_correct_or_pressloc2_
82	1	3	103	1	1	2	0	3	0	1	311120103	block3_	disappearance_	shape1_	black_	counterclockwise_	loc3_	notarget_	correct_or_press	block3_disappearance_shape1_black_counterclockwise_notarget_correct_or_pressloc3_
83	1	3	108	1	1	1	0	4	0	1	311110104	block3_	disappearance_	shape1_	black_	clockwise_	loc4_	notarget_	correct_or_press	block3_disappearance_shape1_black_clockwise_notarget_correct_or_pressloc4_
84	1	3	111	1	2	2	0	3	0	1	311220103	block3_	disappearance_	shape1_	white_	counterclockwise_	loc3_	notarget_	correct_or_press	block3_disappearance_shape1_white_counterclockwise_notarget_correct_or_pressloc3_
85	1	3	123	2	1	1	0	3	0	1	312110103	block3_	disappearance_	shape2_	black_	clockwise_	loc3_	notarget_	correct_or_press	block3_disappearance_shape2_black_clockwise_notarget_correct_or_pressloc3_
86	1	3	121	2	1	1	0	1	0	1	312110101	block3_	disappearance_	shape2_	black_	clockwise_	loc1_	notarget_	correct_or_press	block3_disappearance_shape2_black_clockwise_notarget_correct_or_pressloc1_
87	1	3	115	1	2	1	0	3	0	1	311210103	block3_	disappearance_	shape1_	white_	clockwise_	loc3_	notarget_	correct_or_press	block3_disappearance_shape1_white_clockwise_notarget_correct_or_pressloc3_
88	1	3	132	2	2	1	0	4	0	1	312210104	block3_	disappearance_	shape2_	white_	clockwise_	loc4_	notarget_	correct_or_press	block3_disappearance_shape2_white_clockwise_notarget_correct_or_pressloc4_
89	1	3	101	1	1	2	0	1	0	1	311120101	block3_	disappearance_	shape1_	black_	counterclockwise_	loc1_	notarget_	correct_or_press	block3_disappearance_shape1_black_counterclockwise_notarget_correct_or_pressloc1_
90	1	3	127	2	2	2	0	3	0	1	312220103	block3_	disappearance_	shape2_	white_	counterclockwise_	loc3_	notarget_	correct_or_press	block3_disappearance_shape2_white_counterclockwise_notarget_correct_or_pressloc3_
91	1	3	110	1	2	2	0	2	0	1	311220102	block3_	disappearance_	shape1_	white_	counterclockwise_	loc2_	notarget_	correct_or_press	block3_disappearance_shape1_white_counterclockwise_notarget_correct_or_pressloc2_
92	1	3	107	1	1	1	1	3	11	1	311111103	block3_	disappearance_	shape1_	black_	clockwise_	loc3_	istarget_	correct_or_press	block3_disappearance_shape1_black_clockwise_istarget_correct_or_pressloc3_
93	1	3	132	2	2	1	0	4	0	1	312210104	block3_	disappearance_	shape2_	white_	clockwise_	loc4_	notarget_	correct_or_press	block3_disappearance_shape2_white_clockwise_notarget_correct_or_pressloc4_
94	1	3	109	1	2	2	0	1	0	1	311220101	block3_	disappearance_	shape1_	white_	counterclockwise_	loc1_	notarget_	correct_or_press	block3_disappearance_shape1_white_counterclockwise_notarget_correct_or_pressloc1_
95	1	3	107	1	1	1	0	3	0	1	311110103	block3_	disappearance_	shape1_	black_	clockwise_	loc3_	notarget_	correct_or_press	block3_disappearance_shape1_black_clockwise_notarget_correct_or_pressloc3_
96	1	3	122	2	1	1	0	2	0	1	312110102	block3_	disappearance_	shape2_	black_	clockwise_	loc2_	notarget_	correct_or_press	block3_disappearance_shape2_black_clockwise_notarget_correct_or_pressloc2_
97	1	3	118	2	1	2	0	2	0	1	312120102	block3_	disappearance_	shape2_	black_	counterclockwise_	loc2_	notarget_	correct_or_press	block3_disappearance_shape2_black_counterclockwise_notarget_correct_or_pressloc2_
98	1	3	102	1	1	2	0	2	0	1	311120102	block3_	disappearance_	shape1_	black_	counterclockwise_	loc2_	notarget_	correct_or_press	block3_disappearance_shape1_black_counterclockwise_notarget_correct_or_pressloc2_
99	1	3	103	1	1	2	1	3	15	1	311121103	block3_	disappearance_	shape1_	black_	counterclockwise_	loc3_	istarget_	correct_or_press	block3_disappearance_shape1_black_counterclockwise_istarget_correct_or_pressloc3_
100	1	3	101	1	1	2	0	1	0	1	311120101	block3_	disappearance_	shape1_	black_	counterclockwise_	loc1_	notarget_	correct_or_press	block3_disappearance_shape1_black_counterclockwise_notarget_correct_or_pressloc1_
101	1	3	102	1	1	2	1	2	17	1	311121102	block3_	disappearance_	shape1_	black_	counterclockwise_	loc2_	istarget_	correct_or_press	block3_disappearance_shape1_black_counterclockwise_istarget_correct_or_pressloc2_
102	1	3	131	2	2	1	1	3	14	1	312211103	block3_	disappearance_	shape2_	white_	clockwise_	loc3_	istarget_	correct_or_press	block3_disappearance_shape2_white_clockwise_istarget_correct_or_pressloc3_
103	1	3	121	2	1	1	0	1	0	1	312110101	block3_	disappearance_	shape2_	black_	clockwise_	loc1_	notarget_	correct_or_press	block3_disappearance_shape2_black_clockwise_notarget_correct_or_pressloc1_
104	1	3	102	1	1	2	0	2	0	1	311120102	block3_	disappearance_	shape1_	black_	counterclockwise_	loc2_	notarget_	correct_or_press	block3_disappearance_shape1_black_counterclockwise_notarget_correct_or_pressloc2_
105	1	3	120	2	1	2	1	4	17	1	312121104	block3_	disappearance_	shape2_	black_	counterclockwise_	loc4_	istarget_	correct_or_press	block3_disappearance_shape2_black_counterclockwise_istarget_correct_or_pressloc4_
106	1	3	129	2	2	1	0	1	0	1	312210101	block3_	disappearance_	shape2_	white_	clockwise_	loc1_	notarget_	correct_or_press	block3_disappearance_shape2_white_clockwise_notarget_correct_or_pressloc1_
107	1	3	116	1	2	1	0	4	0	1	311210104	block3_	disappearance_	shape1_	white_	clockwise_	loc4_	notarget_	correct_or_press	block3_disappearance_shape1_white_clockwise_notarget_correct_or_pressloc4_
108	1	3	125	2	2	2	0	1	0	1	312220101	block3_	disappearance_	shape2_	white_	counterclockwise_	loc1_	notarget_	correct_or_press	block3_disappearance_shape2_white_counterclockwise_notarget_correct_or_pressloc1_
109	1	3	121	2	1	1	0	1	0	1	312110101	block3_	disappearance_	shape2_	black_	clockwise_	loc1_	notarget_	correct_or_press	block3_disappearance_shape2_black_clockwise_notarget_correct_or_pressloc1_
110	1	3	114	1	2	1	0	2	0	1	311210102	block3_	disappearance_	shape1_	white_	clockwise_	loc2_	notarget_	correct_or_press	block3_disappearance_shape1_white_clockwise_notarget_correct_or_pressloc2_
111	1	3	112	1	2	2	0	4	0	1	311220104	block3_	disappearance_	shape1_	white_	counterclockwise_	loc4_	notarget_	correct_or_press	block3_disappearance_shape1_white_counterclockwise_notarget_correct_or_pressloc4_
112	1	3	126	2	2	2	0	2	0	1	312220102	block3_	disappearance_	shape2_	white_	counterclockwise_	loc2_	notarget_	correct_or_press	block3_disappearance_shape2_white_counterclockwise_notarget_correct_or_pressloc2_
113	1	3	105	1	1	1	0	1	0	1	311110101	block3_	disappearance_	shape1_	black_	clockwise_	loc1_	notarget_	correct_or_press	block3_disappearance_shape1_black_clockwise_notarget_correct_or_pressloc1_
114	2	3	261	1	2	0	2	61	2	0	321202061	block3_	flicker_	shape1_	white_	counterclockwise_	loc61_	padding_	incorrect_or_nopress	block3_flicker_shape1_white_counterclockwise_padding_incorrect_or_nopressloc61_
115	2	3	232	2	2	0	0	32	0	0	322200032	block3_	flicker_	shape2_	white_	counterclockwise_	loc32_	notarget_	incorrect_or_nopress	block3_flicker_shape2_white_counterclockwise_notarget_incorrect_or_nopressloc32_
116	2	3	234	1	2	0	0	34	0	0	321200034	block3_	flicker_	shape1_	white_	counterclockwise_	loc34_	notarget_	incorrect_or_nopress	block3_flicker_shape1_white_counterclockwise_notarget_incorrect_or_nopressloc34_
117	2	3	240	2	1	0	0	40	0	0	322100040	block3_	flicker_	shape2_	black_	counterclockwise_	loc40_	notarget_	incorrect_or_nopress	block3_flicker_shape2_black_counterclockwise_notarget_incorrect_or_nopressloc40_
118	2	3	259	1	1	0	0	59	0	0	321100059	block3_	flicker_	shape1_	black_	counterclockwise_	loc59_	notarget_	incorrect_or_nopress	block3_flicker_shape1_black_counterclockwise_notarget_incorrect_or_nopressloc59_
119	2	3	248	2	2	0	0	48	0	0	322200048	block3_	flicker_	shape2_	white_	counterclockwise_	loc48_	notarget_	incorrect_or_nopress	block3_flicker_shape2_white_counterclockwise_notarget_incorrect_or_nopressloc48_
120	2	3	243	2	2	0	0	43	0	0	322200043	block3_	flicker_	shape2_	white_	counterclockwise_	loc43_	notarget_	incorrect_or_nopress	block3_flicker_shape2_white_counterclockwise_notarget_incorrect_or_nopressloc43_
121	2	3	203	1	1	0	0	3	0	0	321100003	block3_	flicker_	shape1_	black_	counterclockwise_	loc3_	notarget_	incorrect_or_nopress	block3_flicker_shape1_black_counterclockwise_notarget_incorrect_or_nopressloc3_
122	2	3	216	1	2	0	0	16	0	0	321200016	block3_	flicker_	shape1_	white_	counterclockwise_	loc16_	notarget_	incorrect_or_nopress	block3_flicker_shape1_white_counterclockwise_notarget_incorrect_or_nopressloc16_
123	2	3	253	1	2	0	0	53	0	0	321200053	block3_	flicker_	shape1_	white_	counterclockwise_	loc53_	notarget_	incorrect_or_nopress	block3_flicker_shape1_white_counterclockwise_notarget_incorrect_or_nopressloc53_
124	2	3	235	2	2	0	0	35	0	0	322200035	block3_	flicker_	shape2_	white_	counterclockwise_	loc35_	notarget_	incorrect_or_nopress	block3_flicker_shape2_white_counterclockwise_notarget_incorrect_or_nopressloc35_
125	2	3	204	2	1	0	0	4	0	0	322100004	block3_	flicker_	shape2_	black_	counterclockwise_	loc4_	notarget_	incorrect_or_nopress	block3_flicker_shape2_black_counterclockwise_notarget_incorrect_or_nopressloc4_
126	2	3	209	1	2	0	0	9	0	0	321200009	block3_	flicker_	shape1_	white_	counterclockwise_	loc9_	notarget_	incorrect_or_nopress	block3_flicker_shape1_white_counterclockwise_notarget_incorrect_or_nopressloc9_
127	2	3	258	1	2	0	0	58	0	0	321200058	block3_	flicker_	shape1_	white_	counterclockwise_	loc58_	notarget_	incorrect_or_nopress	block3_flicker_shape1_white_counterclockwise_notarget_incorrect_or_nopressloc58_
128	2	3	245	1	2	0	0	45	0	0	321200045	block3_	flicker_	shape1_	white_	counterclockwise_	loc45_	notarget_	incorrect_or_nopress	block3_flicker_shape1_white_counterclockwise_notarget_incorrect_or_nopressloc45_
129	2	3	206	1	1	0	0	6	0	0	321100006	block3_	flicker_	shape1_	black_	counterclockwise_	loc6_	notarget_	incorrect_or_nopress	block3_flicker_shape1_black_counterclockwise_notarget_incorrect_or_nopressloc6_
130	2	3	220	2	2	0	0	20	0	0	322200020	block3_	flicker_	shape2_	white_	counterclockwise_	loc20_	notarget_	incorrect_or_nopress	block3_flicker_shape2_white_counterclockwise_notarget_incorrect_or_nopressloc20_
131	2	3	204	1	1	0	0	4	0	0	321100004	block3_	flicker_	shape1_	black_	counterclockwise_	loc4_	notarget_	incorrect_or_nopress	block3_flicker_shape1_black_counterclockwise_notarget_incorrect_or_nopressloc4_
132	2	3	221	1	2	0	0	21	0	0	321200021	block3_	flicker_	shape1_	white_	counterclockwise_	loc21_	notarget_	incorrect_or_nopress	block3_flicker_shape1_white_counterclockwise_notarget_incorrect_or_nopressloc21_
133	2	3	247	2	1	0	0	47	0	0	322100047	block3_	flicker_	shape2_	black_	counterclockwise_	loc47_	notarget_	incorrect_or_nopress	block3_flicker_shape2_black_counterclockwise_notarget_incorrect_or_nopressloc47_
134	2	3	237	2	1	0	0	37	0	0	322100037	block3_	flicker_	shape2_	black_	counterclockwise_	loc37_	notarget_	incorrect_or_nopress	block3_flicker_shape2_black_counterclockwise_notarget_incorrect_or_nopressloc37_
135	2	3	256	1	2	0	0	56	0	0	321200056	block3_	flicker_	shape1_	white_	counterclockwise_	loc56_	notarget_	incorrect_or_nopress	block3_flicker_shape1_white_counterclockwise_notarget_incorrect_or_nopressloc56_
136	2	3	247	1	1	0	0	47	0	0	321100047	block3_	flicker_	shape1_	black_	counterclockwise_	loc47_	notarget_	incorrect_or_nopress	block3_flicker_shape1_black_counterclockwise_notarget_incorrect_or_nopressloc47_
137	2	3	212	1	1	0	0	12	0	0	321100012	block3_	flicker_	shape1_	black_	counterclockwise_	loc12_	notarget_	incorrect_or_nopress	block3_flicker_shape1_black_counterclockwise_notarget_incorrect_or_nopressloc12_
138	2	3	229	1	1	0	0	29	0	0	321100029	block3_	flicker_	shape1_	black_	counterclockwise_	loc29_	notarget_	incorrect_or_nopress	block3_flicker_shape1_black_counterclockwise_notarget_incorrect_or_nopressloc29_
139	2	3	257	2	1	0	0	57	0	0	322100057	block3_	flicker_	shape2_	black_	counterclockwise_	loc57_	notarget_	incorrect_or_nopress	block3_flicker_shape2_black_counterclockwise_notarget_incorrect_or_nopressloc57_
140	2	3	254	2	2	0	0	54	0	0	322200054	block3_	flicker_	shape2_	white_	counterclockwise_	loc54_	notarget_	incorrect_or_nopress	block3_flicker_shape2_white_counterclockwise_notarget_incorrect_or_nopressloc54_
141	2	3	231	1	2	0	0	31	0	0	321200031	block3_	flicker_	shape1_	white_	counterclockwise_	loc31_	notarget_	incorrect_or_nopress	block3_flicker_shape1_white_counterclockwise_notarget_incorrect_or_nopressloc31_
142	2	3	213	2	1	0	0	13	0	0	322100013	block3_	flicker_	shape2_	black_	counterclockwise_	loc13_	notarget_	incorrect_or_nopress	block3_flicker_shape2_black_counterclockwise_notarget_incorrect_or_nopressloc13_
143	2	3	219	2	1	0	0	19	0	0	322100019	block3_	flicker_	shape2_	black_	counterclockwise_	loc19_	notarget_	incorrect_or_nopress	block3_flicker_shape2_black_counterclockwise_notarget_incorrect_or_nopressloc19_
144	2	3	217	2	2	0	0	17	0	0	322200017	block3_	flicker_	shape2_	white_	counterclockwise_	loc17_	notarget_	incorrect_or_nopress	block3_flicker_shape2_white_counterclockwise_notarget_incorrect_or_nopressloc17_
145	2	3	214	1	2	0	0	14	0	0	321200014	block3_	flicker_	shape1_	white_	counterclockwise_	loc14_	notarget_	incorrect_or_nopress	block3_flicker_shape1_white_counterclockwise_notarget_incorrect_or_nopressloc14_
146	2	3	247	2	2	0	0	47	0	0	322200047	block3_	flicker_	shape2_	white_	counterclockwise_	loc47_	notarget_	incorrect_or_nopress	block3_flicker_shape2_white_counterclockwise_notarget_incorrect_or_nopressloc47_
147	2	3	245	1	1	0	0	45	0	0	321100045	block3_	flicker_	shape1_	black_	counterclockwise_	loc45_	notarget_	incorrect_or_nopress	block3_flicker_shape1_black_counterclockwise_notarget_incorrect_or_nopressloc45_
148	2	3	221	2	1	0	0	21	0	0	322100021	block3_	flicker_	shape2_	black_	counterclockwise_	loc21_	notarget_	incorrect_or_nopress	block3_flicker_shape2_black_counterclockwise_notarget_incorrect_or_nopressloc21_
149	2	3	242	2	1	0	0	42	0	0	322100042	block3_	flicker_	shape2_	black_	counterclockwise_	loc42_	notarget_	incorrect_or_nopress	block3_flicker_shape2_black_counterclockwise_notarget_incorrect_or_nopressloc42_
150	2	3	254	1	1	0	0	54	0	0	321100054	block3_	flicker_	shape1_	black_	counterclockwise_	loc54_	notarget_	incorrect_or_nopress	block3_flicker_shape1_black_counterclockwise_notarget_incorrect_or_nopressloc54_
151	2	3	236	1	2	0	0	36	0	0	321200036	block3_	flicker_	shape1_	white_	counterclockwise_	loc36_	notarget_	incorrect_or_nopress	block3_flicker_shape1_white_counterclockwise_notarget_incorrect_or_nopressloc36_
152	2	3	223	2	2	0	0	23	0	0	322200023	block3_	flicker_	shape2_	white_	counterclockwise_	loc23_	notarget_	incorrect_or_nopress	block3_flicker_shape2_white_counterclockwise_notarget_incorrect_or_nopressloc23_
153	2	3	241	1	1	0	0	41	0	0	321100041	block3_	flicker_	shape1_	black_	counterclockwise_	loc41_	notarget_	incorrect_or_nopress	block3_flicker_shape1_black_counterclockwise_notarget_incorrect_or_nopressloc41_
154	2	3	256	2	1	0	0	56	0	0	322100056	block3_	flicker_	shape2_	black_	counterclockwise_	loc56_	notarget_	incorrect_or_nopress	block3_flicker_shape2_black_counterclockwise_notarget_incorrect_or_nopressloc56_
155	2	3	240	1	1	0	0	40	0	0	321100040	block3_	flicker_	shape1_	black_	counterclockwise_	loc40_	notarget_	incorrect_or_nopress	block3_flicker_shape1_black_counterclockwise_notarget_incorrect_or_nopressloc40_
156	2	3	251	1	1	0	0	51	0	0	321100051	block3_	flicker_	shape1_	black_	counterclockwise_	loc51_	notarget_	incorrect_or_nopress	block3_flicker_shape1_black_counterclockwise_notarget_incorrect_or_nopressloc51_
157	2	3	245	2	1	0	0	45	0	0	322100045	block3_	flicker_	shape2_	black_	counterclockwise_	loc45_	notarget_	incorrect_or_nopress	block3_flicker_shape2_black_counterclockwise_notarget_incorrect_or_nopressloc45_
158	2	3	251	1	2	0	0	51	0	0	321200051	block3_	flicker_	shape1_	white_	counterclockwise_	loc51_	notarget_	incorrect_or_nopress	block3_flicker_shape1_white_counterclockwise_notarget_incorrect_or_nopressloc51_
159	2	3	211	1	2	0	0	11	0	0	321200011	block3_	flicker_	shape1_	white_	counterclockwise_	loc11_	notarget_	incorrect_or_nopress	block3_flicker_shape1_white_counterclockwise_notarget_incorrect_or_nopressloc11_
160	2	3	219	1	2	0	0	19	0	0	321200019	block3_	flicker_	shape1_	white_	counterclockwise_	loc19_	notarget_	incorrect_or_nopress	block3_flicker_shape1_white_counterclockwise_notarget_incorrect_or_nopressloc19_
161	2	3	240	2	2	0	0	40	0	0	322200040	block3_	flicker_	shape2_	white_	counterclockwise_	loc40_	notarget_	incorrect_or_nopress	block3_flicker_shape2_white_counterclockwise_notarget_incorrect_or_nopressloc40_
162	2	3	232	2	1	0	0	32	0	0	322100032	block3_	flicker_	shape2_	black_	counterclockwise_	loc32_	notarget_	incorrect_or_nopress	block3_flicker_shape2_black_counterclockwise_notarget_incorrect_or_nopressloc32_
163	2	3	218	1	2	0	0	18	0	0	321200018	block3_	flicker_	shape1_	white_	counterclockwise_	loc18_	notarget_	incorrect_or_nopress	block3_flicker_shape1_white_counterclockwise_notarget_incorrect_or_nopressloc18_
164	2	3	216	2	1	0	0	16	0	0	322100016	block3_	flicker_	shape2_	black_	counterclockwise_	loc16_	notarget_	incorrect_or_nopress	block3_flicker_shape2_black_counterclockwise_notarget_incorrect_or_nopressloc16_
165	2	3	229	1	2	0	0	29	0	0	321200029	block3_	flicker_	shape1_	white_	counterclockwise_	loc29_	notarget_	incorrect_or_nopress	block3_flicker_shape1_white_counterclockwise_notarget_incorrect_or_nopressloc29_
166	2	3	204	2	2	0	0	4	0	0	322200004	block3_	flicker_	shape2_	white_	counterclockwise_	loc4_	notarget_	incorrect_or_nopress	block3_flicker_shape2_white_counterclockwise_notarget_incorrect_or_nopressloc4_
167	2	3	201	2	2	0	0	1	0	0	322200001	block3_	flicker_	shape2_	white_	counterclockwise_	loc1_	notarget_	incorrect_or_nopress	block3_flicker_shape2_white_counterclockwise_notarget_incorrect_or_nopressloc1_
168	2	3	241	2	2	0	0	41	0	0	322200041	block3_	flicker_	shape2_	white_	counterclockwise_	loc41_	notarget_	incorrect_or_nopress	block3_flicker_shape2_white_counterclockwise_notarget_incorrect_or_nopressloc41_
169	2	3	208	1	1	0	0	8	0	0	321100008	block3_	flicker_	shape1_	black_	counterclockwise_	loc8_	notarget_	incorrect_or_nopress	block3_flicker_shape1_black_counterclockwise_notarget_incorrect_or_nopressloc8_
170	2	3	226	1	1	0	0	26	0	0	321100026	block3_	flicker_	shape1_	black_	counterclockwise_	loc26_	notarget_	incorrect_or_nopress	block3_flicker_shape1_black_counterclockwise_notarget_incorrect_or_nopressloc26_
171	2	3	253	1	1	0	0	53	0	0	321100053	block3_	flicker_	shape1_	black_	counterclockwise_	loc53_	notarget_	incorrect_or_nopress	block3_flicker_shape1_black_counterclockwise_notarget_incorrect_or_nopressloc53_
172	2	3	237	1	2	0	0	37	0	0	321200037	block3_	flicker_	shape1_	white_	counterclockwise_	loc37_	notarget_	incorrect_or_nopress	block3_flicker_shape1_white_counterclockwise_notarget_incorrect_or_nopressloc37_
173	2	3	257	1	2	0	0	57	0	0	321200057	block3_	flicker_	shape1_	white_	counterclockwise_	loc57_	notarget_	incorrect_or_nopress	block3_flicker_shape1_white_counterclockwise_notarget_incorrect_or_nopressloc57_
174	2	3	234	1	1	0	0	34	0	0	321100034	block3_	flicker_	shape1_	black_	counterclockwise_	loc34_	notarget_	incorrect_or_nopress	block3_flicker_shape1_black_counterclockwise_notarget_incorrect_or_nopressloc34_
175	2	3	217	1	1	0	0	17	0	0	321100017	block3_	flicker_	shape1_	black_	counterclockwise_	loc17_	notarget_	incorrect_or_nopress	block3_flicker_shape1_black_counterclockwise_notarget_incorrect_or_nopressloc17_
176	2	3	210	1	2	0	0	10	0	0	321200010	block3_	flicker_	shape1_	white_	counterclockwise_	loc10_	notarget_	incorrect_or_nopress	block3_flicker_shape1_white_counterclockwise_notarget_incorrect_or_nopressloc10_
177	2	3	255	1	1	0	0	55	0	0	321100055	block3_	flicker_	shape1_	black_	counterclockwise_	loc55_	notarget_	incorrect_or_nopress	block3_flicker_shape1_black_counterclockwise_notarget_incorrect_or_nopressloc55_
178	2	3	261	1	1	0	0	61	0	0	321100061	block3_	flicker_	shape1_	black_	counterclockwise_	loc61_	notarget_	incorrect_or_nopress	block3_flicker_shape1_black_counterclockwise_notarget_incorrect_or_nopressloc61_
179	2	3	212	2	2	0	0	12	0	0	322200012	block3_	flicker_	shape2_	white_	counterclockwise_	loc12_	notarget_	incorrect_or_nopress	block3_flicker_shape2_white_counterclockwise_notarget_incorrect_or_nopressloc12_
180	2	3	214	2	1	0	0	14	0	0	322100014	block3_	flicker_	shape2_	black_	counterclockwise_	loc14_	notarget_	incorrect_or_nopress	block3_flicker_shape2_black_counterclockwise_notarget_incorrect_or_nopressloc14_
181	2	3	262	1	1	0	0	62	0	0	321100062	block3_	flicker_	shape1_	black_	counterclockwise_	loc62_	notarget_	incorrect_or_nopress	block3_flicker_shape1_black_counterclockwise_notarget_incorrect_or_nopressloc62_
182	2	3	222	2	1	0	0	22	0	0	322100022	block3_	flicker_	shape2_	black_	counterclockwise_	loc22_	notarget_	incorrect_or_nopress	block3_flicker_shape2_black_counterclockwise_notarget_incorrect_or_nopressloc22_
183	2	3	205	2	1	0	0	5	0	0	322100005	block3_	flicker_	shape2_	black_	counterclockwise_	loc5_	notarget_	incorrect_or_nopress	block3_flicker_shape2_black_counterclockwise_notarget_incorrect_or_nopressloc5_
184	2	3	221	1	1	0	0	21	0	0	321100021	block3_	flicker_	shape1_	black_	counterclockwise_	loc21_	notarget_	incorrect_or_nopress	block3_flicker_shape1_black_counterclockwise_notarget_incorrect_or_nopressloc21_
185	2	3	218	2	2	0	0	18	0	0	322200018	block3_	flicker_	shape2_	white_	counterclockwise_	loc18_	notarget_	incorrect_or_nopress	block3_flicker_shape2_white_counterclockwise_notarget_incorrect_or_nopressloc18_
186	2	3	259	2	2	0	0	59	0	0	322200059	block3_	flicker_	shape2_	white_	counterclockwise_	loc59_	notarget_	incorrect_or_nopress	block3_flicker_shape2_white_counterclockwise_notarget_incorrect_or_nopressloc59_
187	2	3	255	2	1	0	0	55	0	0	322100055	block3_	flicker_	shape2_	black_	counterclockwise_	loc55_	notarget_	incorrect_or_nopress	block3_flicker_shape2_black_counterclockwise_notarget_incorrect_or_nopressloc55_
188	2	3	248	1	1	0	0	48	0	0	321100048	block3_	flicker_	shape1_	black_	counterclockwise_	loc48_	notarget_	incorrect_or_nopress	block3_flicker_shape1_black_counterclockwise_notarget_incorrect_or_nopressloc48_
189	2	3	227	1	1	0	0	27	0	0	321100027	block3_	flicker_	shape1_	black_	counterclockwise_	loc27_	notarget_	incorrect_or_nopress	block3_flicker_shape1_black_counterclockwise_notarget_incorrect_or_nopressloc27_
190	2	3	238	2	1	0	0	38	0	0	322100038	block3_	flicker_	shape2_	black_	counterclockwise_	loc38_	notarget_	incorrect_or_nopress	block3_flicker_shape2_black_counterclockwise_notarget_incorrect_or_nopressloc38_
191	2	3	263	1	1	0	0	63	0	0	321100063	block3_	flicker_	shape1_	black_	counterclockwise_	loc63_	notarget_	incorrect_or_nopress	block3_flicker_shape1_black_counterclockwise_notarget_incorrect_or_nopressloc63_
192	2	3	217	2	1	0	0	17	0	0	322100017	block3_	flicker_	shape2_	black_	counterclockwise_	loc17_	notarget_	incorrect_or_nopress	block3_flicker_shape2_black_counterclockwise_notarget_incorrect_or_nopressloc17_
193	2	3	263	1	2	0	0	63	0	0	321200063	block3_	flicker_	shape1_	white_	counterclockwise_	loc63_	notarget_	incorrect_or_nopress	block3_flicker_shape1_white_counterclockwise_notarget_incorrect_or_nopressloc63_
194	2	3	218	1	1	0	0	18	0	0	321100018	block3_	flicker_	shape1_	black_	counterclockwise_	loc18_	notarget_	incorrect_or_nopress	block3_flicker_shape1_black_counterclockwise_notarget_incorrect_or_nopressloc18_
195	2	3	222	1	2	0	0	22	0	0	321200022	block3_	flicker_	shape1_	white_	counterclockwise_	loc22_	notarget_	incorrect_or_nopress	block3_flicker_shape1_white_counterclockwise_notarget_incorrect_or_nopressloc22_
196	2	3	220	1	2	0	0	20	0	0	321200020	block3_	flicker_	shape1_	white_	counterclockwise_	loc20_	notarget_	incorrect_or_nopress	block3_flicker_shape1_white_counterclockwise_notarget_incorrect_or_nopressloc20_
197	2	3	231	2	1	0	0	31	0	0	322100031	block3_	flicker_	shape2_	black_	counterclockwise_	loc31_	notarget_	incorrect_or_nopress	block3_flicker_shape2_black_counterclockwise_notarget_incorrect_or_nopressloc31_
198	2	3	223	2	1	0	0	23	0	0	322100023	block3_	flicker_	shape2_	black_	counterclockwise_	loc23_	notarget_	incorrect_or_nopress	block3_flicker_shape2_black_counterclockwise_notarget_incorrect_or_nopressloc23_
199	2	3	229	2	2	0	0	29	0	0	322200029	block3_	flicker_	shape2_	white_	counterclockwise_	loc29_	notarget_	incorrect_or_nopress	block3_flicker_shape2_white_counterclockwise_notarget_incorrect_or_nopressloc29_
200	2	3	246	1	2	0	0	46	0	0	321200046	block3_	flicker_	shape1_	white_	counterclockwise_	loc46_	notarget_	incorrect_or_nopress	block3_flicker_shape1_white_counterclockwise_notarget_incorrect_or_nopressloc46_
201	2	3	260	1	2	0	0	60	0	0	321200060	block3_	flicker_	shape1_	white_	counterclockwise_	loc60_	notarget_	incorrect_or_nopress	block3_flicker_shape1_white_counterclockwise_notarget_incorrect_or_nopressloc60_
202	2	3	259	2	1	0	0	59	0	0	322100059	block3_	flicker_	shape2_	black_	counterclockwise_	loc59_	notarget_	incorrect_or_nopress	block3_flicker_shape2_black_counterclockwise_notarget_incorrect_or_nopressloc59_
203	2	3	252	2	2	0	0	52	0	0	322200052	block3_	flicker_	shape2_	white_	counterclockwise_	loc52_	notarget_	incorrect_or_nopress	block3_flicker_shape2_white_counterclockwise_notarget_incorrect_or_nopressloc52_
204	2	3	244	2	2	0	0	44	0	0	322200044	block3_	flicker_	shape2_	white_	counterclockwise_	loc44_	notarget_	incorrect_or_nopress	block3_flicker_shape2_white_counterclockwise_notarget_incorrect_or_nopressloc44_
205	2	3	219	2	2	0	0	19	0	0	322200019	block3_	flicker_	shape2_	white_	counterclockwise_	loc19_	notarget_	incorrect_or_nopress	block3_flicker_shape2_white_counterclockwise_notarget_incorrect_or_nopressloc19_
206	2	3	252	1	1	0	0	52	0	0	321100052	block3_	flicker_	shape1_	black_	counterclockwise_	loc52_	notarget_	incorrect_or_nopress	block3_flicker_shape1_black_counterclockwise_notarget_incorrect_or_nopressloc52_
207	2	3	248	1	2	0	0	48	0	0	321200048	block3_	flicker_	shape1_	white_	counterclockwise_	loc48_	notarget_	incorrect_or_nopress	block3_flicker_shape1_white_counterclockwise_notarget_incorrect_or_nopressloc48_
208	2	3	247	1	2	0	0	47	0	0	321200047	block3_	flicker_	shape1_	white_	counterclockwise_	loc47_	notarget_	incorrect_or_nopress	block3_flicker_shape1_white_counterclockwise_notarget_incorrect_or_nopressloc47_
209	2	3	261	2	1	0	0	61	0	0	322100061	block3_	flicker_	shape2_	black_	counterclockwise_	loc61_	notarget_	incorrect_or_nopress	block3_flicker_shape2_black_counterclockwise_notarget_incorrect_or_nopressloc61_
210	2	3	215	2	2	0	0	15	0	0	322200015	block3_	flicker_	shape2_	white_	counterclockwise_	loc15_	notarget_	incorrect_or_nopress	block3_flicker_shape2_white_counterclockwise_notarget_incorrect_or_nopressloc15_
211	2	3	231	1	1	0	0	31	0	0	321100031	block3_	flicker_	shape1_	black_	counterclockwise_	loc31_	notarget_	incorrect_or_nopress	block3_flicker_shape1_black_counterclockwise_notarget_incorrect_or_nopressloc31_
212	2	3	228	1	2	0	0	28	0	0	321200028	block3_	flicker_	shape1_	white_	counterclockwise_	loc28_	notarget_	incorrect_or_nopress	block3_flicker_shape1_white_counterclockwise_notarget_incorrect_or_nopressloc28_
213	2	3	226	2	2	0	0	26	0	0	322200026	block3_	flicker_	shape2_	white_	counterclockwise_	loc26_	notarget_	incorrect_or_nopress	block3_flicker_shape2_white_counterclockwise_notarget_incorrect_or_nopressloc26_
214	2	3	251	2	1	0	0	51	0	0	322100051	block3_	flicker_	shape2_	black_	counterclockwise_	loc51_	notarget_	incorrect_or_nopress	block3_flicker_shape2_black_counterclockwise_notarget_incorrect_or_nopressloc51_
215	2	3	210	1	1	0	0	10	0	0	321100010	block3_	flicker_	shape1_	black_	counterclockwise_	loc10_	notarget_	incorrect_or_nopress	block3_flicker_shape1_black_counterclockwise_notarget_incorrect_or_nopressloc10_
216	2	3	228	2	2	0	0	28	0	0	322200028	block3_	flicker_	shape2_	white_	counterclockwise_	loc28_	notarget_	incorrect_or_nopress	block3_flicker_shape2_white_counterclockwise_notarget_incorrect_or_nopressloc28_
217	2	3	223	1	1	0	0	23	0	0	321100023	block3_	flicker_	shape1_	black_	counterclockwise_	loc23_	notarget_	incorrect_or_nopress	block3_flicker_shape1_black_counterclockwise_notarget_incorrect_or_nopressloc23_
218	2	3	260	2	2	0	0	60	0	0	322200060	block3_	flicker_	shape2_	white_	counterclockwise_	loc60_	notarget_	incorrect_or_nopress	block3_flicker_shape2_white_counterclockwise_notarget_incorrect_or_nopressloc60_
219	2	3	233	2	1	0	0	33	0	0	322100033	block3_	flicker_	shape2_	black_	counterclockwise_	loc33_	notarget_	incorrect_or_nopress	block3_flicker_shape2_black_counterclockwise_notarget_incorrect_or_nopressloc33_
220	2	3	244	1	2	0	0	44	0	0	321200044	block3_	flicker_	shape1_	white_	counterclockwise_	loc44_	notarget_	incorrect_or_nopress	block3_flicker_shape1_white_counterclockwise_notarget_incorrect_or_nopressloc44_
221	2	3	253	2	1	0	0	53	0	0	322100053	block3_	flicker_	shape2_	black_	counterclockwise_	loc53_	notarget_	incorrect_or_nopress	block3_flicker_shape2_black_counterclockwise_notarget_incorrect_or_nopressloc53_
222	2	3	220	1	1	0	0	20	0	0	321100020	block3_	flicker_	shape1_	black_	counterclockwise_	loc20_	notarget_	incorrect_or_nopress	block3_flicker_shape1_black_counterclockwise_notarget_incorrect_or_nopressloc20_
223	2	3	262	2	2	0	0	62	0	0	322200062	block3_	flicker_	shape2_	white_	counterclockwise_	loc62_	notarget_	incorrect_or_nopress	block3_flicker_shape2_white_counterclockwise_notarget_incorrect_or_nopressloc62_
224	2	3	224	1	2	0	0	24	0	0	321200024	block3_	flicker_	shape1_	white_	counterclockwise_	loc24_	notarget_	incorrect_or_nopress	block3_flicker_shape1_white_counterclockwise_notarget_incorrect_or_nopressloc24_
225	2	3	208	1	2	0	0	8	0	0	321200008	block3_	flicker_	shape1_	white_	counterclockwise_	loc8_	notarget_	incorrect_or_nopress	block3_flicker_shape1_white_counterclockwise_notarget_incorrect_or_nopressloc8_
226	2	3	229	2	1	0	0	29	0	0	322100029	block3_	flicker_	shape2_	black_	counterclockwise_	loc29_	notarget_	incorrect_or_nopress	block3_flicker_shape2_black_counterclockwise_notarget_incorrect_or_nopressloc29_
227	2	3	224	2	2	0	0	24	0	0	322200024	block3_	flicker_	shape2_	white_	counterclockwise_	loc24_	notarget_	incorrect_or_nopress	block3_flicker_shape2_white_counterclockwise_notarget_incorrect_or_nopressloc24_
228	2	3	249	1	2	0	0	49	0	0	321200049	block3_	flicker_	shape1_	white_	counterclockwise_	loc49_	notarget_	incorrect_or_nopress	block3_flicker_shape1_white_counterclockwise_notarget_incorrect_or_nopressloc49_
229	2	3	201	2	1	0	0	1	0	0	322100001	block3_	flicker_	shape2_	black_	counterclockwise_	loc1_	notarget_	incorrect_or_nopress	block3_flicker_shape2_black_counterclockwise_notarget_incorrect_or_nopressloc1_
230	2	3	207	1	2	0	0	7	0	0	321200007	block3_	flicker_	shape1_	white_	counterclockwise_	loc7_	notarget_	incorrect_or_nopress	block3_flicker_shape1_white_counterclockwise_notarget_incorrect_or_nopressloc7_
231	2	3	204	1	2	0	0	4	0	0	321200004	block3_	flicker_	shape1_	white_	counterclockwise_	loc4_	notarget_	incorrect_or_nopress	block3_flicker_shape1_white_counterclockwise_notarget_incorrect_or_nopressloc4_
232	2	3	264	2	2	0	0	64	0	0	322200064	block3_	flicker_	shape2_	white_	counterclockwise_	loc64_	notarget_	incorrect_or_nopress	block3_flicker_shape2_white_counterclockwise_notarget_incorrect_or_nopressloc64_
233	2	3	232	1	1	0	0	32	0	0	321100032	block3_	flicker_	shape1_	black_	counterclockwise_	loc32_	notarget_	incorrect_or_nopress	block3_flicker_shape1_black_counterclockwise_notarget_incorrect_or_nopressloc32_
234	2	3	227	2	1	0	0	27	0	0	322100027	block3_	flicker_	shape2_	black_	counterclockwise_	loc27_	notarget_	incorrect_or_nopress	block3_flicker_shape2_black_counterclockwise_notarget_incorrect_or_nopressloc27_
235	2	3	239	1	2	0	0	39	0	0	321200039	block3_	flicker_	shape1_	white_	counterclockwise_	loc39_	notarget_	incorrect_or_nopress	block3_flicker_shape1_white_counterclockwise_notarget_incorrect_or_nopressloc39_
236	2	3	216	2	2	0	0	16	0	0	322200016	block3_	flicker_	shape2_	white_	counterclockwise_	loc16_	notarget_	incorrect_or_nopress	block3_flicker_shape2_white_counterclockwise_notarget_incorrect_or_nopressloc16_
237	2	3	238	2	2	0	0	38	0	0	322200038	block3_	flicker_	shape2_	white_	counterclockwise_	loc38_	notarget_	incorrect_or_nopress	block3_flicker_shape2_white_counterclockwise_notarget_incorrect_or_nopressloc38_
238	2	3	262	2	1	0	0	62	0	0	322100062	block3_	flicker_	shape2_	black_	counterclockwise_	loc62_	notarget_	incorrect_or_nopress	block3_flicker_shape2_black_counterclockwise_notarget_incorrect_or_nopressloc62_
239	2	3	239	2	1	0	0	39	0	0	322100039	block3_	flicker_	shape2_	black_	counterclockwise_	loc39_	notarget_	incorrect_or_nopress	block3_flicker_shape2_black_counterclockwise_notarget_incorrect_or_nopressloc39_
240	2	3	215	1	1	0	0	15	0	0	321100015	block3_	flicker_	shape1_	black_	counterclockwise_	loc15_	notarget_	incorrect_or_nopress	block3_flicker_shape1_black_counterclockwise_notarget_incorrect_or_nopressloc15_
241	2	3	225	1	2	0	0	25	0	0	321200025	block3_	flicker_	shape1_	white_	counterclockwise_	loc25_	notarget_	incorrect_or_nopress	block3_flicker_shape1_white_counterclockwise_notarget_incorrect_or_nopressloc25_
242	2	3	219	1	1	0	0	19	0	0	321100019	block3_	flicker_	shape1_	black_	counterclockwise_	loc19_	notarget_	incorrect_or_nopress	block3_flicker_shape1_black_counterclockwise_notarget_incorrect_or_nopressloc19_
243	2	3	244	2	1	0	0	44	0	0	322100044	block3_	flicker_	shape2_	black_	counterclockwise_	loc44_	notarget_	incorrect_or_nopress	block3_flicker_shape2_black_counterclockwise_notarget_incorrect_or_nopressloc44_
244	2	3	242	1	2	0	0	42	0	0	321200042	block3_	flicker_	shape1_	white_	counterclockwise_	loc42_	notarget_	incorrect_or_nopress	block3_flicker_shape1_white_counterclockwise_notarget_incorrect_or_nopressloc42_
245	2	3	202	1	1	0	0	2	0	0	321100002	block3_	flicker_	shape1_	black_	counterclockwise_	loc2_	notarget_	incorrect_or_nopress	block3_flicker_shape1_black_counterclockwise_notarget_incorrect_or_nopressloc2_
246	2	3	211	2	2	0	0	11	0	0	322200011	block3_	flicker_	shape2_	white_	counterclockwise_	loc11_	notarget_	incorrect_or_nopress	block3_flicker_shape2_white_counterclockwise_notarget_incorrect_or_nopressloc11_
247	2	3	260	2	1	0	0	60	0	0	322100060	block3_	flicker_	shape2_	black_	counterclockwise_	loc60_	notarget_	incorrect_or_nopress	block3_flicker_shape2_black_counterclockwise_notarget_incorrect_or_nopressloc60_
248	2	3	213	2	2	0	0	13	0	0	322200013	block3_	flicker_	shape2_	white_	counterclockwise_	loc13_	notarget_	incorrect_or_nopress	block3_flicker_shape2_white_counterclockwise_notarget_incorrect_or_nopressloc13_
249	2	3	248	2	1	0	0	48	0	0	322100048	block3_	flicker_	shape2_	black_	counterclockwise_	loc48_	notarget_	incorrect_or_nopress	block3_flicker_shape2_black_counterclockwise_notarget_incorrect_or_nopressloc48_
250	2	3	212	2	1	0	0	12	0	0	322100012	block3_	flicker_	shape2_	black_	counterclockwise_	loc12_	notarget_	incorrect_or_nopress	block3_flicker_shape2_black_counterclockwise_notarget_incorrect_or_nopressloc12_
251	2	3	222	2	2	0	0	22	0	0	322200022	block3_	flicker_	shape2_	white_	counterclockwise_	loc22_	notarget_	incorrect_or_nopress	block3_flicker_shape2_white_counterclockwise_notarget_incorrect_or_nopressloc22_
252	2	3	212	1	2	0	0	12	0	0	321200012	block3_	flicker_	shape1_	white_	counterclockwise_	loc12_	notarget_	incorrect_or_nopress	block3_flicker_shape1_white_counterclockwise_notarget_incorrect_or_nopressloc12_
253	2	3	228	2	1	0	0	28	0	0	322100028	block3_	flicker_	shape2_	black_	counterclockwise_	loc28_	notarget_	incorrect_or_nopress	block3_flicker_shape2_black_counterclockwise_notarget_incorrect_or_nopressloc28_
254	2	3	206	2	1	0	0	6	0	0	322100006	block3_	flicker_	shape2_	black_	counterclockwise_	loc6_	notarget_	incorrect_or_nopress	block3_flicker_shape2_black_counterclockwise_notarget_incorrect_or_nopressloc6_
255	2	3	243	1	2	0	0	43	0	0	321200043	block3_	flicker_	shape1_	white_	counterclockwise_	loc43_	notarget_	incorrect_or_nopress	block3_flicker_shape1_white_counterclockwise_notarget_incorrect_or_nopressloc43_
256	2	3	203	1	2	0	0	3	0	0	321200003	block3_	flicker_	shape1_	white_	counterclockwise_	loc3_	notarget_	incorrect_or_nopress	block3_flicker_shape1_white_counterclockwise_notarget_incorrect_or_nopressloc3_
257	2	3	242	1	1	0	0	42	0	0	321100042	block3_	flicker_	shape1_	black_	counterclockwise_	loc42_	notarget_	incorrect_or_nopress	block3_flicker_shape1_black_counterclockwise_notarget_incorrect_or_nopressloc42_
258	2	3	227	1	2	0	0	27	0	0	321200027	block3_	flicker_	shape1_	white_	counterclockwise_	loc27_	notarget_	incorrect_or_nopress	block3_flicker_shape1_white_counterclockwise_notarget_incorrect_or_nopressloc27_
259	2	3	214	1	1	0	0	14	0	0	321100014	block3_	flicker_	shape1_	black_	counterclockwise_	loc14_	notarget_	incorrect_or_nopress	block3_flicker_shape1_black_counterclockwise_notarget_incorrect_or_nopressloc14_
260	2	3	256	1	1	0	0	56	0	0	321100056	block3_	flicker_	shape1_	black_	counterclockwise_	loc56_	notarget_	incorrect_or_nopress	block3_flicker_shape1_black_counterclockwise_notarget_incorrect_or_nopressloc56_
261	2	3	203	2	1	0	0	3	0	0	322100003	block3_	flicker_	shape2_	black_	counterclockwise_	loc3_	notarget_	incorrect_or_nopress	block3_flicker_shape2_black_counterclockwise_notarget_incorrect_or_nopressloc3_
262	2	3	202	1	2	0	0	2	0	0	321200002	block3_	flicker_	shape1_	white_	counterclockwise_	loc2_	notarget_	incorrect_or_nopress	block3_flicker_shape1_white_counterclockwise_notarget_incorrect_or_nopressloc2_
263	2	3	208	2	2	0	0	8	0	0	322200008	block3_	flicker_	shape2_	white_	counterclockwise_	loc8_	notarget_	incorrect_or_nopress	block3_flicker_shape2_white_counterclockwise_notarget_incorrect_or_nopressloc8_
264	2	3	230	1	2	0	0	30	0	0	321200030	block3_	flicker_	shape1_	white_	counterclockwise_	loc30_	notarget_	incorrect_or_nopress	block3_flicker_shape1_white_counterclockwise_notarget_incorrect_or_nopressloc30_
265	2	3	235	2	1	0	0	35	0	0	322100035	block3_	flicker_	shape2_	black_	counterclockwise_	loc35_	notarget_	incorrect_or_nopress	block3_flicker_shape2_black_counterclockwise_notarget_incorrect_or_nopressloc35_
266	2	3	207	1	1	0	0	7	0	0	321100007	block3_	flicker_	shape1_	black_	counterclockwise_	loc7_	notarget_	incorrect_or_nopress	block3_flicker_shape1_black_counterclockwise_notarget_incorrect_or_nopressloc7_
267	2	3	259	1	2	0	0	59	0	0	321200059	block3_	flicker_	shape1_	white_	counterclockwise_	loc59_	notarget_	incorrect_or_nopress	block3_flicker_shape1_white_counterclockwise_notarget_incorrect_or_nopressloc59_
268	2	3	222	1	1	0	0	22	0	0	321100022	block3_	flicker_	shape1_	black_	counterclockwise_	loc22_	notarget_	incorrect_or_nopress	block3_flicker_shape1_black_counterclockwise_notarget_incorrect_or_nopressloc22_
269	2	3	221	2	2	0	0	21	0	0	322200021	block3_	flicker_	shape2_	white_	counterclockwise_	loc21_	notarget_	incorrect_or_nopress	block3_flicker_shape2_white_counterclockwise_notarget_incorrect_or_nopressloc21_
270	2	3	209	2	2	0	0	9	0	0	322200009	block3_	flicker_	shape2_	white_	counterclockwise_	loc9_	notarget_	incorrect_or_nopress	block3_flicker_shape2_white_counterclockwise_notarget_incorrect_or_nopressloc9_
271	2	3	220	2	1	0	0	20	0	0	322100020	block3_	flicker_	shape2_	black_	counterclockwise_	loc20_	notarget_	incorrect_or_nopress	block3_flicker_shape2_black_counterclockwise_notarget_incorrect_or_nopressloc20_
272	2	3	239	1	1	0	0	39	0	0	321100039	block3_	flicker_	shape1_	black_	counterclockwise_	loc39_	notarget_	incorrect_or_nopress	block3_flicker_shape1_black_counterclockwise_notarget_incorrect_or_nopressloc39_
273	2	3	237	2	2	0	0	37	0	0	322200037	block3_	flicker_	shape2_	white_	counterclockwise_	loc37_	notarget_	incorrect_or_nopress	block3_flicker_shape2_white_counterclockwise_notarget_incorrect_or_nopressloc37_
274	2	3	210	2	1	0	0	10	0	0	322100010	block3_	flicker_	shape2_	black_	counterclockwise_	loc10_	notarget_	incorrect_or_nopress	block3_flicker_shape2_black_counterclockwise_notarget_incorrect_or_nopressloc10_
275	2	3	206	1	2	0	0	6	0	0	321200006	block3_	flicker_	shape1_	white_	counterclockwise_	loc6_	notarget_	incorrect_or_nopress	block3_flicker_shape1_white_counterclockwise_notarget_incorrect_or_nopressloc6_
276	2	3	230	1	1	0	0	30	0	0	321100030	block3_	flicker_	shape1_	black_	counterclockwise_	loc30_	notarget_	incorrect_or_nopress	block3_flicker_shape1_black_counterclockwise_notarget_incorrect_or_nopressloc30_
277	2	3	216	1	1	0	0	16	0	0	321100016	block3_	flicker_	shape1_	black_	counterclockwise_	loc16_	notarget_	incorrect_or_nopress	block3_flicker_shape1_black_counterclockwise_notarget_incorrect_or_nopressloc16_
278	2	3	261	2	2	0	0	61	0	0	322200061	block3_	flicker_	shape2_	white_	counterclockwise_	loc61_	notarget_	incorrect_or_nopress	block3_flicker_shape2_white_counterclockwise_notarget_incorrect_or_nopressloc61_
279	2	3	256	2	2	0	0	56	0	0	322200056	block3_	flicker_	shape2_	white_	counterclockwise_	loc56_	notarget_	incorrect_or_nopress	block3_flicker_shape2_white_counterclockwise_notarget_incorrect_or_nopressloc56_
280	2	3	260	1	1	0	0	60	0	0	321100060	block3_	flicker_	shape1_	black_	counterclockwise_	loc60_	notarget_	incorrect_or_nopress	block3_flicker_shape1_black_counterclockwise_notarget_incorrect_or_nopressloc60_
281	2	3	209	2	1	0	0	9	0	0	322100009	block3_	flicker_	shape2_	black_	counterclockwise_	loc9_	notarget_	incorrect_or_nopress	block3_flicker_shape2_black_counterclockwise_notarget_incorrect_or_nopressloc9_
282	2	3	236	2	2	0	0	36	0	0	322200036	block3_	flicker_	shape2_	white_	counterclockwise_	loc36_	notarget_	incorrect_or_nopress	block3_flicker_shape2_white_counterclockwise_notarget_incorrect_or_nopressloc36_
283	2	3	203	2	2	0	0	3	0	0	322200003	block3_	flicker_	shape2_	white_	counterclockwise_	loc3_	notarget_	incorrect_or_nopress	block3_flicker_shape2_white_counterclockwise_notarget_incorrect_or_nopressloc3_
284	2	3	235	1	1	0	0	35	0	0	321100035	block3_	flicker_	shape1_	black_	counterclockwise_	loc35_	notarget_	incorrect_or_nopress	block3_flicker_shape1_black_counterclockwise_notarget_incorrect_or_nopressloc35_
285	2	3	225	2	2	0	0	25	0	0	322200025	block3_	flicker_	shape2_	white_	counterclockwise_	loc25_	notarget_	incorrect_or_nopress	block3_flicker_shape2_white_counterclockwise_notarget_incorrect_or_nopressloc25_
286	2	3	213	1	1	0	0	13	0	0	321100013	block3_	flicker_	shape1_	black_	counterclockwise_	loc13_	notarget_	incorrect_or_nopress	block3_flicker_shape1_black_counterclockwise_notarget_incorrect_or_nopressloc13_
287	2	3	238	1	1	0	0	38	0	0	321100038	block3_	flicker_	shape1_	black_	counterclockwise_	loc38_	notarget_	incorrect_or_nopress	block3_flicker_shape1_black_counterclockwise_notarget_incorrect_or_nopressloc38_
288	2	3	233	2	2	0	0	33	0	0	322200033	block3_	flicker_	shape2_	white_	counterclockwise_	loc33_	notarget_	incorrect_or_nopress	block3_flicker_shape2_white_counterclockwise_notarget_incorrect_or_nopressloc33_
289	2	3	224	2	1	0	0	24	0	0	322100024	block3_	flicker_	shape2_	black_	counterclockwise_	loc24_	notarget_	incorrect_or_nopress	block3_flicker_shape2_black_counterclockwise_notarget_incorrect_or_nopressloc24_
290	2	3	234	2	1	0	0	34	0	0	322100034	block3_	flicker_	shape2_	black_	counterclockwise_	loc34_	notarget_	incorrect_or_nopress	block3_flicker_shape2_black_counterclockwise_notarget_incorrect_or_nopressloc34_
291	2	3	205	2	2	0	0	5	0	0	322200005	block3_	flicker_	shape2_	white_	counterclockwise_	loc5_	notarget_	incorrect_or_nopress	block3_flicker_shape2_white_counterclockwise_notarget_incorrect_or_nopressloc5_
292	2	3	252	2	1	0	0	52	0	0	322100052	block3_	flicker_	shape2_	black_	counterclockwise_	loc52_	notarget_	incorrect_or_nopress	block3_flicker_shape2_black_counterclockwise_notarget_incorrect_or_nopressloc52_
293	2	3	257	2	2	0	0	57	0	0	322200057	block3_	flicker_	shape2_	white_	counterclockwise_	loc57_	notarget_	incorrect_or_nopress	block3_flicker_shape2_white_counterclockwise_notarget_incorrect_or_nopressloc57_
294	2	3	255	1	2	0	0	55	0	0	321200055	block3_	flicker_	shape1_	white_	counterclockwise_	loc55_	notarget_	incorrect_or_nopress	block3_flicker_shape1_white_counterclockwise_notarget_incorrect_or_nopressloc55_
295	2	3	238	1	2	0	0	38	0	0	321200038	block3_	flicker_	shape1_	white_	counterclockwise_	loc38_	notarget_	incorrect_or_nopress	block3_flicker_shape1_white_counterclockwise_notarget_incorrect_or_nopressloc38_
296	2	3	230	2	1	0	0	30	0	0	322100030	block3_	flicker_	shape2_	black_	counterclockwise_	loc30_	notarget_	incorrect_or_nopress	block3_flicker_shape2_black_counterclockwise_notarget_incorrect_or_nopressloc30_
297	2	3	243	1	1	0	0	43	0	0	321100043	block3_	flicker_	shape1_	black_	counterclockwise_	loc43_	notarget_	incorrect_or_nopress	block3_flicker_shape1_black_counterclockwise_notarget_incorrect_or_nopressloc43_
298	2	3	245	2	2	0	0	45	0	0	322200045	block3_	flicker_	shape2_	white_	counterclockwise_	loc45_	notarget_	incorrect_or_nopress	block3_flicker_shape2_white_counterclockwise_notarget_incorrect_or_nopressloc45_
299	2	3	246	2	1	0	0	46	0	0	322100046	block3_	flicker_	shape2_	black_	counterclockwise_	loc46_	notarget_	incorrect_or_nopress	block3_flicker_shape2_black_counterclockwise_notarget_incorrect_or_nopressloc46_
300	2	3	227	2	2	0	0	27	0	0	322200027	block3_	flicker_	shape2_	white_	counterclockwise_	loc27_	notarget_	incorrect_or_nopress	block3_flicker_shape2_white_counterclockwise_notarget_incorrect_or_nopressloc27_
301	2	3	232	1	2	0	0	32	0	0	321200032	block3_	flicker_	shape1_	white_	counterclockwise_	loc32_	notarget_	incorrect_or_nopress	block3_flicker_shape1_white_counterclockwise_notarget_incorrect_or_nopressloc32_
302	2	3	228	1	1	0	0	28	0	0	321100028	block3_	flicker_	shape1_	black_	counterclockwise_	loc28_	notarget_	incorrect_or_nopress	block3_flicker_shape1_black_counterclockwise_notarget_incorrect_or_nopressloc28_
303	2	3	225	1	1	0	0	25	0	0	321100025	block3_	flicker_	shape1_	black_	counterclockwise_	loc25_	notarget_	incorrect_or_nopress	block3_flicker_shape1_black_counterclockwise_notarget_incorrect_or_nopressloc25_
304	2	3	231	2	2	0	0	31	0	0	322200031	block3_	flicker_	shape2_	white_	counterclockwise_	loc31_	notarget_	incorrect_or_nopress	block3_flicker_shape2_white_counterclockwise_notarget_incorrect_or_nopressloc31_
305	2	3	241	1	2	0	0	41	0	0	321200041	block3_	flicker_	shape1_	white_	counterclockwise_	loc41_	notarget_	incorrect_or_nopress	block3_flicker_shape1_white_counterclockwise_notarget_incorrect_or_nopressloc41_
306	2	3	258	2	2	0	0	58	0	0	322200058	block3_	flicker_	shape2_	white_	counterclockwise_	loc58_	notarget_	incorrect_or_nopress	block3_flicker_shape2_white_counterclockwise_notarget_incorrect_or_nopressloc58_
307	2	3	246	2	2	0	0	46	0	0	322200046	block3_	flicker_	shape2_	white_	counterclockwise_	loc46_	notarget_	incorrect_or_nopress	block3_flicker_shape2_white_counterclockwise_notarget_incorrect_or_nopressloc46_
308	2	3	236	1	1	0	0	36	0	0	321100036	block3_	flicker_	shape1_	black_	counterclockwise_	loc36_	notarget_	incorrect_or_nopress	block3_flicker_shape1_black_counterclockwise_notarget_incorrect_or_nopressloc36_
309	2	3	217	1	2	0	0	17	0	0	321200017	block3_	flicker_	shape1_	white_	counterclockwise_	loc17_	notarget_	incorrect_or_nopress	block3_flicker_shape1_white_counterclockwise_notarget_incorrect_or_nopressloc17_
310	2	3	230	2	2	0	0	30	0	0	322200030	block3_	flicker_	shape2_	white_	counterclockwise_	loc30_	notarget_	incorrect_or_nopress	block3_flicker_shape2_white_counterclockwise_notarget_incorrect_or_nopressloc30_
311	2	3	214	2	2	0	0	14	0	0	322200014	block3_	flicker_	shape2_	white_	counterclockwise_	loc14_	notarget_	incorrect_or_nopress	block3_flicker_shape2_white_counterclockwise_notarget_incorrect_or_nopressloc14_
312	2	3	233	1	2	0	0	33	0	0	321200033	block3_	flicker_	shape1_	white_	counterclockwise_	loc33_	notarget_	incorrect_or_nopress	block3_flicker_shape1_white_counterclockwise_notarget_incorrect_or_nopressloc33_
313	2	3	201	1	2	0	0	1	0	0	321200001	block3_	flicker_	shape1_	white_	counterclockwise_	loc1_	notarget_	incorrect_or_nopress	block3_flicker_shape1_white_counterclockwise_notarget_incorrect_or_nopressloc1_
314	2	3	264	1	1	0	0	64	0	0	321100064	block3_	flicker_	shape1_	black_	counterclockwise_	loc64_	notarget_	incorrect_or_nopress	block3_flicker_shape1_black_counterclockwise_notarget_incorrect_or_nopressloc64_
315	2	3	258	1	1	0	0	58	0	0	321100058	block3_	flicker_	shape1_	black_	counterclockwise_	loc58_	notarget_	incorrect_or_nopress	block3_flicker_shape1_black_counterclockwise_notarget_incorrect_or_nopressloc58_
316	2	3	211	2	1	0	0	11	0	0	322100011	block3_	flicker_	shape2_	black_	counterclockwise_	loc11_	notarget_	incorrect_or_nopress	block3_flicker_shape2_black_counterclockwise_notarget_incorrect_or_nopressloc11_
317	2	3	225	2	1	0	0	25	0	0	322100025	block3_	flicker_	shape2_	black_	counterclockwise_	loc25_	notarget_	incorrect_or_nopress	block3_flicker_shape2_black_counterclockwise_notarget_incorrect_or_nopressloc25_
318	2	3	215	2	1	0	0	15	0	0	322100015	block3_	flicker_	shape2_	black_	counterclockwise_	loc15_	notarget_	incorrect_or_nopress	block3_flicker_shape2_black_counterclockwise_notarget_incorrect_or_nopressloc15_
319	2	3	202	2	1	0	0	2	0	0	322100002	block3_	flicker_	shape2_	black_	counterclockwise_	loc2_	notarget_	incorrect_or_nopress	block3_flicker_shape2_black_counterclockwise_notarget_incorrect_or_nopressloc2_
320	2	3	250	1	2	0	0	50	0	0	321200050	block3_	flicker_	shape1_	white_	counterclockwise_	loc50_	notarget_	incorrect_or_nopress	block3_flicker_shape1_white_counterclockwise_notarget_incorrect_or_nopressloc50_
321	2	3	253	2	2	0	0	53	0	0	322200053	block3_	flicker_	shape2_	white_	counterclockwise_	loc53_	notarget_	incorrect_or_nopress	block3_flicker_shape2_white_counterclockwise_notarget_incorrect_or_nopressloc53_
322	2	3	223	1	2	0	0	23	0	0	321200023	block3_	flicker_	shape1_	white_	counterclockwise_	loc23_	notarget_	incorrect_or_nopress	block3_flicker_shape1_white_counterclockwise_notarget_incorrect_or_nopressloc23_
323	2	3	264	1	2	0	0	64	0	0	321200064	block3_	flicker_	shape1_	white_	counterclockwise_	loc64_	notarget_	incorrect_or_nopress	block3_flicker_shape1_white_counterclockwise_notarget_incorrect_or_nopressloc64_
324	2	3	264	2	1	0	0	64	0	0	322100064	block3_	flicker_	shape2_	black_	counterclockwise_	loc64_	notarget_	incorrect_or_nopress	block3_flicker_shape2_black_counterclockwise_notarget_incorrect_or_nopressloc64_
325	2	3	250	2	1	0	0	50	0	0	322100050	block3_	flicker_	shape2_	black_	counterclockwise_	loc50_	notarget_	incorrect_or_nopress	block3_flicker_shape2_black_counterclockwise_notarget_incorrect_or_nopressloc50_
326	2	3	218	2	1	0	0	18	0	0	322100018	block3_	flicker_	shape2_	black_	counterclockwise_	loc18_	notarget_	incorrect_or_nopress	block3_flicker_shape2_black_counterclockwise_notarget_incorrect_or_nopressloc18_
327	2	3	224	1	1	0	0	24	0	0	321100024	block3_	flicker_	shape1_	black_	counterclockwise_	loc24_	notarget_	incorrect_or_nopress	block3_flicker_shape1_black_counterclockwise_notarget_incorrect_or_nopressloc24_
328	2	3	246	1	1	0	0	46	0	0	321100046	block3_	flicker_	shape1_	black_	counterclockwise_	loc46_	notarget_	incorrect_or_nopress	block3_flicker_shape1_black_counterclockwise_notarget_incorrect_or_nopressloc46_
329	2	3	249	2	1	0	0	49	0	0	322100049	block3_	flicker_	shape2_	black_	counterclockwise_	loc49_	notarget_	incorrect_or_nopress	block3_flicker_shape2_black_counterclockwise_notarget_incorrect_or_nopressloc49_
330	2	3	236	2	1	0	0	36	0	0	322100036	block3_	flicker_	shape2_	black_	counterclockwise_	loc36_	notarget_	incorrect_or_nopress	block3_flicker_shape2_black_counterclockwise_notarget_incorrect_or_nopressloc36_
331	2	3	226	2	1	0	0	26	0	0	322100026	block3_	flicker_	shape2_	black_	counterclockwise_	loc26_	notarget_	incorrect_or_nopress	block3_flicker_shape2_black_counterclockwise_notarget_incorrect_or_nopressloc26_
332	2	3	255	2	2	0	0	55	0	0	322200055	block3_	flicker_	shape2_	white_	counterclockwise_	loc55_	notarget_	incorrect_or_nopress	block3_flicker_shape2_white_counterclockwise_notarget_incorrect_or_nopressloc55_
333	2	3	243	2	1	0	0	43	0	0	322100043	block3_	flicker_	shape2_	black_	counterclockwise_	loc43_	notarget_	incorrect_or_nopress	block3_flicker_shape2_black_counterclockwise_notarget_incorrect_or_nopressloc43_
334	2	3	249	2	2	0	0	49	0	0	322200049	block3_	flicker_	shape2_	white_	counterclockwise_	loc49_	notarget_	incorrect_or_nopress	block3_flicker_shape2_white_counterclockwise_notarget_incorrect_or_nopressloc49_
335	2	3	202	2	2	0	0	2	0	0	322200002	block3_	flicker_	shape2_	white_	counterclockwise_	loc2_	notarget_	incorrect_or_nopress	block3_flicker_shape2_white_counterclockwise_notarget_incorrect_or_nopressloc2_
336	2	3	250	2	2	0	0	50	0	0	322200050	block3_	flicker_	shape2_	white_	counterclockwise_	loc50_	notarget_	incorrect_or_nopress	block3_flicker_shape2_white_counterclockwise_notarget_incorrect_or_nopressloc50_
337	2	3	235	1	2	0	0	35	0	0	321200035	block3_	flicker_	shape1_	white_	counterclockwise_	loc35_	notarget_	incorrect_or_nopress	block3_flicker_shape1_white_counterclockwise_notarget_incorrect_or_nopressloc35_
338	2	3	251	2	2	0	0	51	0	0	322200051	block3_	flicker_	shape2_	white_	counterclockwise_	loc51_	notarget_	incorrect_or_nopress	block3_flicker_shape2_white_counterclockwise_notarget_incorrect_or_nopressloc51_
339	2	3	206	2	2	0	0	6	0	0	322200006	block3_	flicker_	shape2_	white_	counterclockwise_	loc6_	notarget_	incorrect_or_nopress	block3_flicker_shape2_white_counterclockwise_notarget_incorrect_or_nopressloc6_
340	2	3	254	2	1	0	0	54	0	0	322100054	block3_	flicker_	shape2_	black_	counterclockwise_	loc54_	notarget_	incorrect_or_nopress	block3_flicker_shape2_black_counterclockwise_notarget_incorrect_or_nopressloc54_
341	2	3	254	1	2	0	0	54	0	0	321200054	block3_	flicker_	shape1_	white_	counterclockwise_	loc54_	notarget_	incorrect_or_nopress	block3_flicker_shape1_white_counterclockwise_notarget_incorrect_or_nopressloc54_
342	2	3	263	2	2	0	0	63	0	0	322200063	block3_	flicker_	shape2_	white_	counterclockwise_	loc63_	notarget_	incorrect_or_nopress	block3_flicker_shape2_white_counterclockwise_notarget_incorrect_or_nopressloc63_
343	2	3	249	1	1	0	0	49	0	0	321100049	block3_	flicker_	shape1_	black_	counterclockwise_	loc49_	notarget_	incorrect_or_nopress	block3_flicker_shape1_black_counterclockwise_notarget_incorrect_or_nopressloc49_
344	2	3	237	1	1	0	0	37	0	0	321100037	block3_	flicker_	shape1_	black_	counterclockwise_	loc37_	notarget_	incorrect_or_nopress	block3_flicker_shape1_black_counterclockwise_notarget_incorrect_or_nopressloc37_
345	2	3	208	2	1	0	0	8	0	0	322100008	block3_	flicker_	shape2_	black_	counterclockwise_	loc8_	notarget_	incorrect_or_nopress	block3_flicker_shape2_black_counterclockwise_notarget_incorrect_or_nopressloc8_
346	2	3	234	2	2	0	0	34	0	0	322200034	block3_	flicker_	shape2_	white_	counterclockwise_	loc34_	notarget_	incorrect_or_nopress	block3_flicker_shape2_white_counterclockwise_notarget_incorrect_or_nopressloc34_
347	2	3	242	2	2	0	0	42	0	0	322200042	block3_	flicker_	shape2_	white_	counterclockwise_	loc42_	notarget_	incorrect_or_nopress	block3_flicker_shape2_white_counterclockwise_notarget_incorrect_or_nopressloc42_
348	2	3	244	1	1	0	0	44	0	0	321100044	block3_	flicker_	shape1_	black_	counterclockwise_	loc44_	notarget_	incorrect_or_nopress	block3_flicker_shape1_black_counterclockwise_notarget_incorrect_or_nopressloc44_
349	2	3	207	2	1	0	0	7	0	0	322100007	block3_	flicker_	shape2_	black_	counterclockwise_	loc7_	notarget_	incorrect_or_nopress	block3_flicker_shape2_black_counterclockwise_notarget_incorrect_or_nopressloc7_
350	2	3	211	1	1	0	0	11	0	0	321100011	block3_	flicker_	shape1_	black_	counterclockwise_	loc11_	notarget_	incorrect_or_nopress	block3_flicker_shape1_black_counterclockwise_notarget_incorrect_or_nopressloc11_
351	2	3	262	1	2	0	0	62	0	0	321200062	block3_	flicker_	shape1_	white_	counterclockwise_	loc62_	notarget_	incorrect_or_nopress	block3_flicker_shape1_white_counterclockwise_notarget_incorrect_or_nopressloc62_
352	2	3	209	1	1	0	0	9	0	0	321100009	block3_	flicker_	shape1_	black_	counterclockwise_	loc9_	notarget_	incorrect_or_nopress	block3_flicker_shape1_black_counterclockwise_notarget_incorrect_or_nopressloc9_
353	2	3	252	1	2	0	0	52	0	0	321200052	block3_	flicker_	shape1_	white_	counterclockwise_	loc52_	notarget_	incorrect_or_nopress	block3_flicker_shape1_white_counterclockwise_notarget_incorrect_or_nopressloc52_
354	2	3	258	2	1	0	0	58	0	0	322100058	block3_	flicker_	shape2_	black_	counterclockwise_	loc58_	notarget_	incorrect_or_nopress	block3_flicker_shape2_black_counterclockwise_notarget_incorrect_or_nopressloc58_
355	2	3	207	2	2	0	0	7	0	0	322200007	block3_	flicker_	shape2_	white_	counterclockwise_	loc7_	notarget_	incorrect_or_nopress	block3_flicker_shape2_white_counterclockwise_notarget_incorrect_or_nopressloc7_
356	2	3	201	1	1	0	0	1	0	0	321100001	block3_	flicker_	shape1_	black_	counterclockwise_	loc1_	notarget_	incorrect_or_nopress	block3_flicker_shape1_black_counterclockwise_notarget_incorrect_or_nopressloc1_
357	2	3	241	2	1	0	0	41	0	0	322100041	block3_	flicker_	shape2_	black_	counterclockwise_	loc41_	notarget_	incorrect_or_nopress	block3_flicker_shape2_black_counterclockwise_notarget_incorrect_or_nopressloc41_
358	2	3	233	1	1	0	0	33	0	0	321100033	block3_	flicker_	shape1_	black_	counterclockwise_	loc33_	notarget_	incorrect_or_nopress	block3_flicker_shape1_black_counterclockwise_notarget_incorrect_or_nopressloc33_
359	2	3	227	2	2	0	2	27	2	0	322202027	block3_	flicker_	shape2_	white_	counterclockwise_	loc27_	padding_	incorrect_or_nopress	block3_flicker_shape2_white_counterclockwise_padding_incorrect_or_nopressloc27_
360	2	3	243	2	1	0	2	43	2	0	322102043	block3_	flicker_	shape2_	black_	counterclockwise_	loc43_	padding_	incorrect_or_nopress	block3_flicker_shape2_black_counterclockwise_padding_incorrect_or_nopressloc43_
361	2	3	232	2	1	0	2	32	2	0	322102032	block3_	flicker_	shape2_	black_	counterclockwise_	loc32_	padding_	incorrect_or_nopress	block3_flicker_shape2_black_counterclockwise_padding_incorrect_or_nopressloc32_
362	2	3	247	1	1	0	2	47	2	0	321102047	block3_	flicker_	shape1_	black_	counterclockwise_	loc47_	padding_	incorrect_or_nopress	block3_flicker_shape1_black_counterclockwise_padding_incorrect_or_nopressloc47_
363	2	3	252	1	1	0	2	52	2	0	321102052	block3_	flicker_	shape1_	black_	counterclockwise_	loc52_	padding_	incorrect_or_nopress	block3_flicker_shape1_black_counterclockwise_padding_incorrect_or_nopressloc52_
364	2	3	244	1	2	0	2	44	2	0	321202044	block3_	flicker_	shape1_	white_	counterclockwise_	loc44_	padding_	incorrect_or_nopress	block3_flicker_shape1_white_counterclockwise_padding_incorrect_or_nopressloc44_
365	2	3	223	1	2	0	2	23	2	0	321202023	block3_	flicker_	shape1_	white_	counterclockwise_	loc23_	padding_	incorrect_or_nopress	block3_flicker_shape1_white_counterclockwise_padding_incorrect_or_nopressloc23_
366	2	3	204	1	1	0	1	4	1	0	321101004	block3_	flicker_	shape1_	black_	counterclockwise_	loc4_	istarget_	incorrect_or_nopress	block3_flicker_shape1_black_counterclockwise_istarget_incorrect_or_nopressloc4_
367	2	3	210	2	2	0	2	10	2	0	322202010	block3_	flicker_	shape2_	white_	counterclockwise_	loc10_	padding_	incorrect_or_nopress	block3_flicker_shape2_white_counterclockwise_padding_incorrect_or_nopressloc10_
368	2	3	218	1	1	0	2	18	2	0	321102018	block3_	flicker_	shape1_	black_	counterclockwise_	loc18_	padding_	incorrect_or_nopress	block3_flicker_shape1_black_counterclockwise_padding_incorrect_or_nopressloc18_
369	2	3	263	2	1	0	2	63	2	1	322102163	block3_	flicker_	shape2_	black_	counterclockwise_	loc63_	padding_	correct_or_press	block3_flicker_shape2_black_counterclockwise_padding_correct_or_pressloc63_
370	2	3	208	2	2	0	2	8	2	1	322202108	block3_	flicker_	shape2_	white_	counterclockwise_	loc8_	padding_	correct_or_press	block3_flicker_shape2_white_counterclockwise_padding_correct_or_pressloc8_
371	2	3	207	2	2	0	2	7	2	0	322202007	block3_	flicker_	shape2_	white_	counterclockwise_	loc7_	padding_	incorrect_or_nopress	block3_flicker_shape2_white_counterclockwise_padding_incorrect_or_nopressloc7_
372	2	3	239	1	2	0	2	39	2	0	321202039	block3_	flicker_	shape1_	white_	counterclockwise_	loc39_	padding_	incorrect_or_nopress	block3_flicker_shape1_white_counterclockwise_padding_incorrect_or_nopressloc39_
373	2	3	236	2	1	0	2	36	2	0	322102036	block3_	flicker_	shape2_	black_	counterclockwise_	loc36_	padding_	incorrect_or_nopress	block3_flicker_shape2_black_counterclockwise_padding_incorrect_or_nopressloc36_
374	2	3	262	1	2	0	2	62	2	0	321202062	block3_	flicker_	shape1_	white_	counterclockwise_	loc62_	padding_	incorrect_or_nopress	block3_flicker_shape1_white_counterclockwise_padding_incorrect_or_nopressloc62_
375	2	3	257	1	1	0	0	57	0	0	321100057	block3_	flicker_	shape1_	black_	counterclockwise_	loc57_	notarget_	incorrect_or_nopress	block3_flicker_shape1_black_counterclockwise_notarget_incorrect_or_nopressloc57_
376	2	3	213	1	2	0	0	13	0	0	321200013	block3_	flicker_	shape1_	white_	counterclockwise_	loc13_	notarget_	incorrect_or_nopress	block3_flicker_shape1_white_counterclockwise_notarget_incorrect_or_nopressloc13_
377	2	3	240	1	2	0	0	40	0	0	321200040	block3_	flicker_	shape1_	white_	counterclockwise_	loc40_	notarget_	incorrect_or_nopress	block3_flicker_shape1_white_counterclockwise_notarget_incorrect_or_nopressloc40_
378	2	3	239	2	2	0	0	39	0	0	322200039	block3_	flicker_	shape2_	white_	counterclockwise_	loc39_	notarget_	incorrect_or_nopress	block3_flicker_shape2_white_counterclockwise_notarget_incorrect_or_nopressloc39_
379	2	3	226	1	2	0	0	26	0	0	321200026	block3_	flicker_	shape1_	white_	counterclockwise_	loc26_	notarget_	incorrect_or_nopress	block3_flicker_shape1_white_counterclockwise_notarget_incorrect_or_nopressloc26_
380	2	3	205	1	1	0	0	5	0	0	321100005	block3_	flicker_	shape1_	black_	counterclockwise_	loc5_	notarget_	incorrect_or_nopress	block3_flicker_shape1_black_counterclockwise_notarget_incorrect_or_nopressloc5_
381	2	3	261	1	2	0	0	61	0	0	321200061	block3_	flicker_	shape1_	white_	counterclockwise_	loc61_	notarget_	incorrect_or_nopress	block3_flicker_shape1_white_counterclockwise_notarget_incorrect_or_nopressloc61_
382	2	3	250	1	1	0	0	50	0	0	321100050	block3_	flicker_	shape1_	black_	counterclockwise_	loc50_	notarget_	incorrect_or_nopress	block3_flicker_shape1_black_counterclockwise_notarget_incorrect_or_nopressloc50_
383	2	3	210	2	2	0	0	10	0	0	322200010	block3_	flicker_	shape2_	white_	counterclockwise_	loc10_	notarget_	incorrect_or_nopress	block3_flicker_shape2_white_counterclockwise_notarget_incorrect_or_nopressloc10_
384	2	3	205	1	2	0	0	5	0	0	321200005	block3_	flicker_	shape1_	white_	counterclockwise_	loc5_	notarget_	incorrect_or_nopress	block3_flicker_shape1_white_counterclockwise_notarget_incorrect_or_nopressloc5_
385	2	3	263	2	1	0	0	63	0	0	322100063	block3_	flicker_	shape2_	black_	counterclockwise_	loc63_	notarget_	incorrect_or_nopress	block3_flicker_shape2_black_counterclockwise_notarget_incorrect_or_nopressloc63_
386	2	3	215	1	2	0	0	15	0	0	321200015	block3_	flicker_	shape1_	white_	counterclockwise_	loc15_	notarget_	incorrect_or_nopress	block3_flicker_shape1_white_counterclockwise_notarget_incorrect_or_nopressloc15_
387	2	3	239	1	1	0	2	39	2	0	321102039	block3_	flicker_	shape1_	black_	counterclockwise_	loc39_	padding_	incorrect_or_nopress	block3_flicker_shape1_black_counterclockwise_padding_incorrect_or_nopressloc39_
388	2	3	230	1	1	0	0	30	0	0	321100030	block3_	flicker_	shape1_	black_	counterclockwise_	loc30_	notarget_	incorrect_or_nopress	block3_flicker_shape1_black_counterclockwise_notarget_incorrect_or_nopressloc30_
389	2	3	235	1	2	0	0	35	0	0	321200035	block3_	flicker_	shape1_	white_	counterclockwise_	loc35_	notarget_	incorrect_or_nopress	block3_flicker_shape1_white_counterclockwise_notarget_incorrect_or_nopressloc35_
390	2	3	207	1	1	0	0	7	0	0	321100007	block3_	flicker_	shape1_	black_	counterclockwise_	loc7_	notarget_	incorrect_or_nopress	block3_flicker_shape1_black_counterclockwise_notarget_incorrect_or_nopressloc7_
391	2	3	233	1	2	0	0	33	0	0	321200033	block3_	flicker_	shape1_	white_	counterclockwise_	loc33_	notarget_	incorrect_or_nopress	block3_flicker_shape1_white_counterclockwise_notarget_incorrect_or_nopressloc33_
392	2	3	230	1	2	0	0	30	0	0	321200030	block3_	flicker_	shape1_	white_	counterclockwise_	loc30_	notarget_	incorrect_or_nopress	block3_flicker_shape1_white_counterclockwise_notarget_incorrect_or_nopressloc30_
393	2	3	215	1	2	0	0	15	0	0	321200015	block3_	flicker_	shape1_	white_	counterclockwise_	loc15_	notarget_	incorrect_or_nopress	block3_flicker_shape1_white_counterclockwise_notarget_incorrect_or_nopressloc15_
394	2	3	202	1	1	0	0	2	0	0	321100002	block3_	flicker_	shape1_	black_	counterclockwise_	loc2_	notarget_	incorrect_or_nopress	block3_flicker_shape1_black_counterclockwise_notarget_incorrect_or_nopressloc2_
395	2	3	241	1	1	0	0	41	0	0	321100041	block3_	flicker_	shape1_	black_	counterclockwise_	loc41_	notarget_	incorrect_or_nopress	block3_flicker_shape1_black_counterclockwise_notarget_incorrect_or_nopressloc41_
396	2	3	228	2	1	0	0	28	0	0	322100028	block3_	flicker_	shape2_	black_	counterclockwise_	loc28_	notarget_	incorrect_or_nopress	block3_flicker_shape2_black_counterclockwise_notarget_incorrect_or_nopressloc28_
397	2	3	259	2	1	0	0	59	0	0	322100059	block3_	flicker_	shape2_	black_	counterclockwise_	loc59_	notarget_	incorrect_or_nopress	block3_flicker_shape2_black_counterclockwise_notarget_incorrect_or_nopressloc59_
398	2	3	260	1	2	0	0	60	0	0	321200060	block3_	flicker_	shape1_	white_	counterclockwise_	loc60_	notarget_	incorrect_or_nopress	block3_flicker_shape1_white_counterclockwise_notarget_incorrect_or_nopressloc60_
399	2	3	214	2	2	0	0	14	0	0	322200014	block3_	flicker_	shape2_	white_	counterclockwise_	loc14_	notarget_	incorrect_or_nopress	block3_flicker_shape2_white_counterclockwise_notarget_incorrect_or_nopressloc14_
400	2	3	252	2	1	0	0	52	0	0	322100052	block3_	flicker_	shape2_	black_	counterclockwise_	loc52_	notarget_	incorrect_or_nopress	block3_flicker_shape2_black_counterclockwise_notarget_incorrect_or_nopressloc52_
401	2	3	259	1	1	0	0	59	0	0	321100059	block3_	flicker_	shape1_	black_	counterclockwise_	loc59_	notarget_	incorrect_or_nopress	block3_flicker_shape1_black_counterclockwise_notarget_incorrect_or_nopressloc59_
402	2	3	247	2	2	0	0	47	0	0	322200047	block3_	flicker_	shape2_	white_	counterclockwise_	loc47_	notarget_	incorrect_or_nopress	block3_flicker_shape2_white_counterclockwise_notarget_incorrect_or_nopressloc47_
403	2	3	251	1	2	0	0	51	0	0	321200051	block3_	flicker_	shape1_	white_	counterclockwise_	loc51_	notarget_	incorrect_or_nopress	block3_flicker_shape1_white_counterclockwise_notarget_incorrect_or_nopressloc51_
404	2	3	208	1	2	0	0	8	0	0	321200008	block3_	flicker_	shape1_	white_	counterclockwise_	loc8_	notarget_	incorrect_or_nopress	block3_flicker_shape1_white_counterclockwise_notarget_incorrect_or_nopressloc8_
405	2	3	244	2	1	0	0	44	0	0	322100044	block3_	flicker_	shape2_	black_	counterclockwise_	loc44_	notarget_	incorrect_or_nopress	block3_flicker_shape2_black_counterclockwise_notarget_incorrect_or_nopressloc44_
406	2	3	216	1	2	0	0	16	0	0	321200016	block3_	flicker_	shape1_	white_	counterclockwise_	loc16_	notarget_	incorrect_or_nopress	block3_flicker_shape1_white_counterclockwise_notarget_incorrect_or_nopressloc16_
407	2	3	219	1	1	0	0	19	0	0	321100019	block3_	flicker_	shape1_	black_	counterclockwise_	loc19_	notarget_	incorrect_or_nopress	block3_flicker_shape1_black_counterclockwise_notarget_incorrect_or_nopressloc19_
408	2	3	214	1	1	0	0	14	0	0	321100014	block3_	flicker_	shape1_	black_	counterclockwise_	loc14_	notarget_	incorrect_or_nopress	block3_flicker_shape1_black_counterclockwise_notarget_incorrect_or_nopressloc14_
409	2	3	236	1	1	0	0	36	0	0	321100036	block3_	flicker_	shape1_	black_	counterclockwise_	loc36_	notarget_	incorrect_or_nopress	block3_flicker_shape1_black_counterclockwise_notarget_incorrect_or_nopressloc36_
410	2	3	238	2	1	0	0	38	0	0	322100038	block3_	flicker_	shape2_	black_	counterclockwise_	loc38_	notarget_	incorrect_or_nopress	block3_flicker_shape2_black_counterclockwise_notarget_incorrect_or_nopressloc38_
411	2	3	215	2	2	0	0	15	0	0	322200015	block3_	flicker_	shape2_	white_	counterclockwise_	loc15_	notarget_	incorrect_or_nopress	block3_flicker_shape2_white_counterclockwise_notarget_incorrect_or_nopressloc15_
412	2	3	250	2	2	0	0	50	0	0	322200050	block3_	flicker_	shape2_	white_	counterclockwise_	loc50_	notarget_	incorrect_or_nopress	block3_flicker_shape2_white_counterclockwise_notarget_incorrect_or_nopressloc50_
413	2	3	260	2	1	0	0	60	0	0	322100060	block3_	flicker_	shape2_	black_	counterclockwise_	loc60_	notarget_	incorrect_or_nopress	block3_flicker_shape2_black_counterclockwise_notarget_incorrect_or_nopressloc60_
414	2	3	209	1	2	0	0	9	0	0	321200009	block3_	flicker_	shape1_	white_	counterclockwise_	loc9_	notarget_	incorrect_or_nopress	block3_flicker_shape1_white_counterclockwise_notarget_incorrect_or_nopressloc9_
415	2	3	216	1	1	0	0	16	0	0	321100016	block3_	flicker_	shape1_	black_	counterclockwise_	loc16_	notarget_	incorrect_or_nopress	block3_flicker_shape1_black_counterclockwise_notarget_incorrect_or_nopressloc16_
416	2	3	260	2	2	0	0	60	0	0	322200060	block3_	flicker_	shape2_	white_	counterclockwise_	loc60_	notarget_	incorrect_or_nopress	block3_flicker_shape2_white_counterclockwise_notarget_incorrect_or_nopressloc60_
417	2	3	251	2	1	0	0	51	0	0	322100051	block3_	flicker_	shape2_	black_	counterclockwise_	loc51_	notarget_	incorrect_or_nopress	block3_flicker_shape2_black_counterclockwise_notarget_incorrect_or_nopressloc51_
418	2	3	208	2	2	0	0	8	0	0	322200008	block3_	flicker_	shape2_	white_	counterclockwise_	loc8_	notarget_	incorrect_or_nopress	block3_flicker_shape2_white_counterclockwise_notarget_incorrect_or_nopressloc8_
419	2	3	263	1	1	0	0	63	0	0	321100063	block3_	flicker_	shape1_	black_	counterclockwise_	loc63_	notarget_	incorrect_or_nopress	block3_flicker_shape1_black_counterclockwise_notarget_incorrect_or_nopressloc63_
420	2	3	208	2	1	0	0	8	0	0	322100008	block3_	flicker_	shape2_	black_	counterclockwise_	loc8_	notarget_	incorrect_or_nopress	block3_flicker_shape2_black_counterclockwise_notarget_incorrect_or_nopressloc8_
421	2	3	252	2	2	0	0	52	0	0	322200052	block3_	flicker_	shape2_	white_	counterclockwise_	loc52_	notarget_	incorrect_or_nopress	block3_flicker_shape2_white_counterclockwise_notarget_incorrect_or_nopressloc52_
422	2	3	221	1	2	0	0	21	0	0	321200021	block3_	flicker_	shape1_	white_	counterclockwise_	loc21_	notarget_	incorrect_or_nopress	block3_flicker_shape1_white_counterclockwise_notarget_incorrect_or_nopressloc21_
423	2	3	257	2	1	0	0	57	0	0	322100057	block3_	flicker_	shape2_	black_	counterclockwise_	loc57_	notarget_	incorrect_or_nopress	block3_flicker_shape2_black_counterclockwise_notarget_incorrect_or_nopressloc57_
424	2	3	263	2	2	0	0	63	0	0	322200063	block3_	flicker_	shape2_	white_	counterclockwise_	loc63_	notarget_	incorrect_or_nopress	block3_flicker_shape2_white_counterclockwise_notarget_incorrect_or_nopressloc63_
425	2	3	239	1	1	0	0	39	0	0	321100039	block3_	flicker_	shape1_	black_	counterclockwise_	loc39_	notarget_	incorrect_or_nopress	block3_flicker_shape1_black_counterclockwise_notarget_incorrect_or_nopressloc39_
426	2	3	206	1	1	0	0	6	0	0	321100006	block3_	flicker_	shape1_	black_	counterclockwise_	loc6_	notarget_	incorrect_or_nopress	block3_flicker_shape1_black_counterclockwise_notarget_incorrect_or_nopressloc6_
427	2	3	264	1	1	0	0	64	0	0	321100064	block3_	flicker_	shape1_	black_	counterclockwise_	loc64_	notarget_	incorrect_or_nopress	block3_flicker_shape1_black_counterclockwise_notarget_incorrect_or_nopressloc64_
428	2	3	243	1	2	0	0	43	0	0	321200043	block3_	flicker_	shape1_	white_	counterclockwise_	loc43_	notarget_	incorrect_or_nopress	block3_flicker_shape1_white_counterclockwise_notarget_incorrect_or_nopressloc43_
429	2	3	256	2	2	0	0	56	0	0	322200056	block3_	flicker_	shape2_	white_	counterclockwise_	loc56_	notarget_	incorrect_or_nopress	block3_flicker_shape2_white_counterclockwise_notarget_incorrect_or_nopressloc56_
430	2	3	208	1	1	0	0	8	0	0	321100008	block3_	flicker_	shape1_	black_	counterclockwise_	loc8_	notarget_	incorrect_or_nopress	block3_flicker_shape1_black_counterclockwise_notarget_incorrect_or_nopressloc8_
431	2	3	229	2	2	0	0	29	0	0	322200029	block3_	flicker_	shape2_	white_	counterclockwise_	loc29_	notarget_	incorrect_or_nopress	block3_flicker_shape2_white_counterclockwise_notarget_incorrect_or_nopressloc29_
432	2	3	235	1	1	0	0	35	0	0	321100035	block3_	flicker_	shape1_	black_	counterclockwise_	loc35_	notarget_	incorrect_or_nopress	block3_flicker_shape1_black_counterclockwise_notarget_incorrect_or_nopressloc35_
433	2	3	213	1	1	0	0	13	0	0	321100013	block3_	flicker_	shape1_	black_	counterclockwise_	loc13_	notarget_	incorrect_or_nopress	block3_flicker_shape1_black_counterclockwise_notarget_incorrect_or_nopressloc13_
434	2	3	234	1	2	0	0	34	0	0	321200034	block3_	flicker_	shape1_	white_	counterclockwise_	loc34_	notarget_	incorrect_or_nopress	block3_flicker_shape1_white_counterclockwise_notarget_incorrect_or_nopressloc34_
435	2	3	218	2	1	0	0	18	0	0	322100018	block3_	flicker_	shape2_	black_	counterclockwise_	loc18_	notarget_	incorrect_or_nopress	block3_flicker_shape2_black_counterclockwise_notarget_incorrect_or_nopressloc18_
436	2	3	261	2	1	0	0	61	0	0	322100061	block3_	flicker_	shape2_	black_	counterclockwise_	loc61_	notarget_	incorrect_or_nopress	block3_flicker_shape2_black_counterclockwise_notarget_incorrect_or_nopressloc61_
437	2	3	257	1	1	0	0	57	0	0	321100057	block3_	flicker_	shape1_	black_	counterclockwise_	loc57_	notarget_	incorrect_or_nopress	block3_flicker_shape1_black_counterclockwise_notarget_incorrect_or_nopressloc57_
438	2	3	232	1	2	0	0	32	0	0	321200032	block3_	flicker_	shape1_	white_	counterclockwise_	loc32_	notarget_	incorrect_or_nopress	block3_flicker_shape1_white_counterclockwise_notarget_incorrect_or_nopressloc32_
439	2	3	239	2	1	0	0	39	0	0	322100039	block3_	flicker_	shape2_	black_	counterclockwise_	loc39_	notarget_	incorrect_or_nopress	block3_flicker_shape2_black_counterclockwise_notarget_incorrect_or_nopressloc39_
440	2	3	220	1	1	0	0	20	0	0	321100020	block3_	flicker_	shape1_	black_	counterclockwise_	loc20_	notarget_	incorrect_or_nopress	block3_flicker_shape1_black_counterclockwise_notarget_incorrect_or_nopressloc20_
441	2	3	244	2	2	0	0	44	0	0	322200044	block3_	flicker_	shape2_	white_	counterclockwise_	loc44_	notarget_	incorrect_or_nopress	block3_flicker_shape2_white_counterclockwise_notarget_incorrect_or_nopressloc44_
442	2	3	263	2	1	0	0	63	0	0	322100063	block3_	flicker_	shape2_	black_	counterclockwise_	loc63_	notarget_	incorrect_or_nopress	block3_flicker_shape2_black_counterclockwise_notarget_incorrect_or_nopressloc63_
443	2	3	209	2	1	0	0	9	0	0	322100009	block3_	flicker_	shape2_	black_	counterclockwise_	loc9_	notarget_	incorrect_or_nopress	block3_flicker_shape2_black_counterclockwise_notarget_incorrect_or_nopressloc9_
444	2	3	262	1	1	0	0	62	0	0	321100062	block3_	flicker_	shape1_	black_	counterclockwise_	loc62_	notarget_	incorrect_or_nopress	block3_flicker_shape1_black_counterclockwise_notarget_incorrect_or_nopressloc62_
445	2	3	264	2	2	0	0	64	0	0	322200064	block3_	flicker_	shape2_	white_	counterclockwise_	loc64_	notarget_	incorrect_or_nopress	block3_flicker_shape2_white_counterclockwise_notarget_incorrect_or_nopressloc64_
446	2	3	245	2	1	0	0	45	0	0	322100045	block3_	flicker_	shape2_	black_	counterclockwise_	loc45_	notarget_	incorrect_or_nopress	block3_flicker_shape2_black_counterclockwise_notarget_incorrect_or_nopressloc45_
447	2	3	248	1	2	0	0	48	0	0	321200048	block3_	flicker_	shape1_	white_	counterclockwise_	loc48_	notarget_	incorrect_or_nopress	block3_flicker_shape1_white_counterclockwise_notarget_incorrect_or_nopressloc48_
448	2	3	254	1	1	0	0	54	0	0	321100054	block3_	flicker_	shape1_	black_	counterclockwise_	loc54_	notarget_	incorrect_or_nopress	block3_flicker_shape1_black_counterclockwise_notarget_incorrect_or_nopressloc54_
449	2	3	224	2	1	0	0	24	0	0	322100024	block3_	flicker_	shape2_	black_	counterclockwise_	loc24_	notarget_	incorrect_or_nopress	block3_flicker_shape2_black_counterclockwise_notarget_incorrect_or_nopressloc24_
450	2	3	211	2	2	0	0	11	0	0	322200011	block3_	flicker_	shape2_	white_	counterclockwise_	loc11_	notarget_	incorrect_or_nopress	block3_flicker_shape2_white_counterclockwise_notarget_incorrect_or_nopressloc11_
451	2	3	227	1	2	0	0	27	0	0	321200027	block3_	flicker_	shape1_	white_	counterclockwise_	loc27_	notarget_	incorrect_or_nopress	block3_flicker_shape1_white_counterclockwise_notarget_incorrect_or_nopressloc27_
452	2	3	252	1	2	0	0	52	0	0	321200052	block3_	flicker_	shape1_	white_	counterclockwise_	loc52_	notarget_	incorrect_or_nopress	block3_flicker_shape1_white_counterclockwise_notarget_incorrect_or_nopressloc52_
453	2	3	261	1	2	0	0	61	0	0	321200061	block3_	flicker_	shape1_	white_	counterclockwise_	loc61_	notarget_	incorrect_or_nopress	block3_flicker_shape1_white_counterclockwise_notarget_incorrect_or_nopressloc61_
454	2	3	228	1	1	0	0	28	0	0	321100028	block3_	flicker_	shape1_	black_	counterclockwise_	loc28_	notarget_	incorrect_or_nopress	block3_flicker_shape1_black_counterclockwise_notarget_incorrect_or_nopressloc28_
455	2	3	217	2	2	0	0	17	0	0	322200017	block3_	flicker_	shape2_	white_	counterclockwise_	loc17_	notarget_	incorrect_or_nopress	block3_flicker_shape2_white_counterclockwise_notarget_incorrect_or_nopressloc17_
456	2	3	249	1	1	0	0	49	0	0	321100049	block3_	flicker_	shape1_	black_	counterclockwise_	loc49_	notarget_	incorrect_or_nopress	block3_flicker_shape1_black_counterclockwise_notarget_incorrect_or_nopressloc49_
457	2	3	252	1	1	0	0	52	0	0	321100052	block3_	flicker_	shape1_	black_	counterclockwise_	loc52_	notarget_	incorrect_or_nopress	block3_flicker_shape1_black_counterclockwise_notarget_incorrect_or_nopressloc52_
458	2	3	260	1	1	0	0	60	0	0	321100060	block3_	flicker_	shape1_	black_	counterclockwise_	loc60_	notarget_	incorrect_or_nopress	block3_flicker_shape1_black_counterclockwise_notarget_incorrect_or_nopressloc60_
459	2	3	222	2	2	0	0	22	0	0	322200022	block3_	flicker_	shape2_	white_	counterclockwise_	loc22_	notarget_	incorrect_or_nopress	block3_flicker_shape2_white_counterclockwise_notarget_incorrect_or_nopressloc22_
460	2	3	230	2	2	0	0	30	0	0	322200030	block3_	flicker_	shape2_	white_	counterclockwise_	loc30_	notarget_	incorrect_or_nopress	block3_flicker_shape2_white_counterclockwise_notarget_incorrect_or_nopressloc30_
461	2	3	233	2	1	0	0	33	0	0	322100033	block3_	flicker_	shape2_	black_	counterclockwise_	loc33_	notarget_	incorrect_or_nopress	block3_flicker_shape2_black_counterclockwise_notarget_incorrect_or_nopressloc33_
462	2	3	253	1	2	0	0	53	0	0	321200053	block3_	flicker_	shape1_	white_	counterclockwise_	loc53_	notarget_	incorrect_or_nopress	block3_flicker_shape1_white_counterclockwise_notarget_incorrect_or_nopressloc53_
463	2	3	221	2	1	0	0	21	0	0	322100021	block3_	flicker_	shape2_	black_	counterclockwise_	loc21_	notarget_	incorrect_or_nopress	block3_flicker_shape2_black_counterclockwise_notarget_incorrect_or_nopressloc21_
464	2	3	231	1	1	0	0	31	0	0	321100031	block3_	flicker_	shape1_	black_	counterclockwise_	loc31_	notarget_	incorrect_or_nopress	block3_flicker_shape1_black_counterclockwise_notarget_incorrect_or_nopressloc31_
465	2	3	229	2	1	0	0	29	0	0	322100029	block3_	flicker_	shape2_	black_	counterclockwise_	loc29_	notarget_	incorrect_or_nopress	block3_flicker_shape2_black_counterclockwise_notarget_incorrect_or_nopressloc29_
466	2	3	226	1	1	0	0	26	0	0	321100026	block3_	flicker_	shape1_	black_	counterclockwise_	loc26_	notarget_	incorrect_or_nopress	block3_flicker_shape1_black_counterclockwise_notarget_incorrect_or_nopressloc26_
467	2	3	254	2	1	0	0	54	0	0	322100054	block3_	flicker_	shape2_	black_	counterclockwise_	loc54_	notarget_	incorrect_or_nopress	block3_flicker_shape2_black_counterclockwise_notarget_incorrect_or_nopressloc54_
468	2	3	243	2	1	0	0	43	0	0	322100043	block3_	flicker_	shape2_	black_	counterclockwise_	loc43_	notarget_	incorrect_or_nopress	block3_flicker_shape2_black_counterclockwise_notarget_incorrect_or_nopressloc43_
469	2	3	256	2	1	0	0	56	0	0	322100056	block3_	flicker_	shape2_	black_	counterclockwise_	loc56_	notarget_	incorrect_or_nopress	block3_flicker_shape2_black_counterclockwise_notarget_incorrect_or_nopressloc56_
470	2	3	243	2	2	0	0	43	0	0	322200043	block3_	flicker_	shape2_	white_	counterclockwise_	loc43_	notarget_	incorrect_or_nopress	block3_flicker_shape2_white_counterclockwise_notarget_incorrect_or_nopressloc43_
471	2	3	263	1	2	0	0	63	0	0	321200063	block3_	flicker_	shape1_	white_	counterclockwise_	loc63_	notarget_	incorrect_or_nopress	block3_flicker_shape1_white_counterclockwise_notarget_incorrect_or_nopressloc63_
472	2	3	248	2	1	0	0	48	0	0	322100048	block3_	flicker_	shape2_	black_	counterclockwise_	loc48_	notarget_	incorrect_or_nopress	block3_flicker_shape2_black_counterclockwise_notarget_incorrect_or_nopressloc48_
473	2	3	246	2	1	0	0	46	0	0	322100046	block3_	flicker_	shape2_	black_	counterclockwise_	loc46_	notarget_	incorrect_or_nopress	block3_flicker_shape2_black_counterclockwise_notarget_incorrect_or_nopressloc46_
474	2	3	254	2	2	0	0	54	0	0	322200054	block3_	flicker_	shape2_	white_	counterclockwise_	loc54_	notarget_	incorrect_or_nopress	block3_flicker_shape2_white_counterclockwise_notarget_incorrect_or_nopressloc54_
475	2	3	235	2	2	0	0	35	0	0	322200035	block3_	flicker_	shape2_	white_	counterclockwise_	loc35_	notarget_	incorrect_or_nopress	block3_flicker_shape2_white_counterclockwise_notarget_incorrect_or_nopressloc35_
476	2	3	237	1	2	0	0	37	0	0	321200037	block3_	flicker_	shape1_	white_	counterclockwise_	loc37_	notarget_	incorrect_or_nopress	block3_flicker_shape1_white_counterclockwise_notarget_incorrect_or_nopressloc37_
477	2	3	244	1	2	0	0	44	0	0	321200044	block3_	flicker_	shape1_	white_	counterclockwise_	loc44_	notarget_	incorrect_or_nopress	block3_flicker_shape1_white_counterclockwise_notarget_incorrect_or_nopressloc44_
478	2	3	257	1	2	0	0	57	0	0	321200057	block3_	flicker_	shape1_	white_	counterclockwise_	loc57_	notarget_	incorrect_or_nopress	block3_flicker_shape1_white_counterclockwise_notarget_incorrect_or_nopressloc57_
479	2	3	238	2	2	0	0	38	0	0	322200038	block3_	flicker_	shape2_	white_	counterclockwise_	loc38_	notarget_	incorrect_or_nopress	block3_flicker_shape2_white_counterclockwise_notarget_incorrect_or_nopressloc38_
480	2	3	212	2	1	0	0	12	0	0	322100012	block3_	flicker_	shape2_	black_	counterclockwise_	loc12_	notarget_	incorrect_or_nopress	block3_flicker_shape2_black_counterclockwise_notarget_incorrect_or_nopressloc12_
481	2	3	213	1	2	0	0	13	0	0	321200013	block3_	flicker_	shape1_	white_	counterclockwise_	loc13_	notarget_	incorrect_or_nopress	block3_flicker_shape1_white_counterclockwise_notarget_incorrect_or_nopressloc13_
482	2	3	253	1	1	0	0	53	0	0	321100053	block3_	flicker_	shape1_	black_	counterclockwise_	loc53_	notarget_	incorrect_or_nopress	block3_flicker_shape1_black_counterclockwise_notarget_incorrect_or_nopressloc53_
483	2	3	238	1	2	0	0	38	0	0	321200038	block3_	flicker_	shape1_	white_	counterclockwise_	loc38_	notarget_	incorrect_or_nopress	block3_flicker_shape1_white_counterclockwise_notarget_incorrect_or_nopressloc38_
484	2	3	225	1	2	0	0	25	0	0	321200025	block3_	flicker_	shape1_	white_	counterclockwise_	loc25_	notarget_	incorrect_or_nopress	block3_flicker_shape1_white_counterclockwise_notarget_incorrect_or_nopressloc25_
485	2	3	247	1	2	0	0	47	0	0	321200047	block3_	flicker_	shape1_	white_	counterclockwise_	loc47_	notarget_	incorrect_or_nopress	block3_flicker_shape1_white_counterclockwise_notarget_incorrect_or_nopressloc47_
